* Measurement data measured by REW V5.20.13
* Source: C:\Users\kurin\Desktop\Targets and Curves\Resolve\Img\Files\TA Solitaire P-SE_SPL.txt
* Format: Comma/Tab/Space delimited data
* Dated: Aug 14, 2023 6:41:46 PM
* REW Settings:
*  C-weighting compensation: Off
*  Target level: 75.0 dB
* Note: ; Measurement imported from C:\Users\kurin\Desktop\Targets and Curves\Resolve\Img\Files\TA Solitaire P-SE_SPL.txt Format: Comma/Tab/Space delimited data 623 values loaded, 5 Hz to 39,792 Hz log spaced 
* Measurement: TA Solitaire P-SE_SPL
* Smoothing: 1/48 octave
* Frequency Step: 1/96 octave
* Start Frequency: 5.000 Hz
*
* Freq(Hz) SPL(dB) Phase(degrees)
5.000000 91.054 -0.0340
5.036232 91.054 -0.0340
5.072727 91.054 -0.0340
5.109486 91.054 -0.0339
5.146511 91.054 -0.0340
5.183805 91.054 -0.0345
5.221369 91.054 -0.0350
5.259205 91.054 -0.0350
5.297316 91.054 -0.0350
5.335702 91.054 -0.0355
5.374367 91.054 -0.0360
5.413311 91.054 -0.0361
5.452538 91.054 -0.0360
5.492050 91.054 -0.0359
5.531847 91.054 -0.0360
5.571934 91.054 -0.0365
5.612310 91.054 -0.0370
5.652979 91.054 -0.0370
5.693943 91.054 -0.0370
5.735204 91.054 -0.0375
5.776763 91.054 -0.0380
5.818624 91.054 -0.0380
5.860788 91.054 -0.0380
5.903258 91.054 -0.0385
5.946035 91.054 -0.0390
5.989123 91.054 -0.0390
6.032523 91.054 -0.0390
6.076237 91.054 -0.0395
6.120268 91.054 -0.0400
6.164618 91.054 -0.0400
6.209289 91.054 -0.0400
6.254284 91.054 -0.0405
6.299605 91.054 -0.0410
6.345255 91.054 -0.0410
6.391235 91.054 -0.0410
6.437549 91.054 -0.0414
6.484198 91.054 -0.0420
6.531185 91.054 -0.0426
6.578513 91.054 -0.0430
6.626183 91.054 -0.0430
6.674199 91.054 -0.0430
6.722563 91.054 -0.0435
6.771278 91.054 -0.0440
6.820345 91.054 -0.0440
6.869768 91.054 -0.0440
6.919549 91.054 -0.0445
6.969691 91.054 -0.0450
7.020196 91.054 -0.0450
7.071068 91.054 -0.0450
7.122308 91.054 -0.0454
7.173919 91.054 -0.0460
7.225904 91.054 -0.0466
7.278266 91.054 -0.0470
7.331007 91.054 -0.0470
7.384131 91.054 -0.0470
7.437639 91.054 -0.0475
7.491535 91.054 -0.0480
7.545822 91.054 -0.0480
7.600502 91.054 -0.0480
7.655579 91.054 -0.0484
7.711054 91.054 -0.0490
7.766932 91.054 -0.0496
7.823214 91.054 -0.0500
7.879904 91.054 -0.0500
7.937005 91.054 -0.0500
7.994520 91.054 -0.0504
8.052452 91.054 -0.0510
8.110803 91.054 -0.0516
8.169578 91.054 -0.0520
8.228777 91.054 -0.0520
8.288406 91.054 -0.0520
8.348468 91.054 -0.0524
8.408964 91.054 -0.0530
8.469899 91.054 -0.0536
8.531276 91.054 -0.0540
8.593097 91.054 -0.0540
8.655366 91.054 -0.0540
8.718086 91.054 -0.0544
8.781260 91.054 -0.0550
8.844893 91.054 -0.0555
8.908987 91.054 -0.0560
8.973545 91.054 -0.0566
9.038571 91.054 -0.0570
9.104069 91.054 -0.0570
9.170040 91.054 -0.0570
9.236490 91.054 -0.0574
9.303422 91.054 -0.0580
9.370838 91.054 -0.0585
9.438744 91.054 -0.0590
9.507140 91.054 -0.0596
9.576033 91.054 -0.0600
9.645425 91.054 -0.0600
9.715320 91.054 -0.0600
9.785721 91.054 -0.0604
9.856632 91.054 -0.0610
9.928058 91.054 -0.0615
10.000000 91.054 -0.0620
10.072464 91.054 -0.0625
10.145453 91.054 -0.0630
10.218971 91.054 -0.0636
10.293022 91.054 -0.0640
10.367610 91.054 -0.0640
10.442738 91.054 -0.0640
10.518411 91.054 -0.0644
10.594631 91.054 -0.0650
10.671404 91.054 -0.0655
10.748734 91.054 -0.0660
10.826623 91.054 -0.0665
10.905077 91.054 -0.0670
10.984100 91.054 -0.0675
11.063695 91.054 -0.0680
11.143867 91.054 -0.0686
11.224621 91.054 -0.0690
11.305959 91.054 -0.0690
11.387886 91.054 -0.0690
11.470407 91.054 -0.0694
11.553527 91.054 -0.0700
11.637249 91.054 -0.0705
11.721577 91.054 -0.0710
11.806517 91.054 -0.0715
11.892071 91.054 -0.0720
11.978246 91.054 -0.0725
12.065045 91.054 -0.0730
12.152473 91.054 -0.0735
12.240536 91.054 -0.0740
12.329235 91.054 -0.0745
12.418578 91.054 -0.0750
12.508568 91.054 -0.0755
12.599211 91.054 -0.0760
12.690510 91.054 -0.0765
12.782471 91.054 -0.0770
12.875097 91.054 -0.0776
12.968395 91.054 -0.0780
13.062370 91.054 -0.0780
13.157025 91.054 -0.0780
13.252366 91.054 -0.0784
13.348398 91.054 -0.0790
13.445127 91.054 -0.0795
13.542556 91.054 -0.0800
13.640691 91.054 -0.0805
13.739536 91.054 -0.0810
13.839099 91.054 -0.0815
13.939383 91.054 -0.0820
14.040393 91.054 -0.0825
14.142136 91.054 -0.0830
14.244616 91.054 -0.0835
14.347837 91.054 -0.0840
14.451808 91.054 -0.0845
14.556532 91.054 -0.0850
14.662014 91.054 -0.0855
14.768262 91.054 -0.0860
14.875278 91.054 -0.0865
14.983070 91.054 -0.0870
15.091644 91.054 -0.0874
15.201005 91.054 -0.0880
15.311157 91.054 -0.0890
15.422109 91.054 -0.0900
15.533863 91.054 -0.0906
15.646428 91.054 -0.0910
15.759809 91.054 -0.0914
15.874010 91.054 -0.0920
15.989040 91.054 -0.0930
16.104904 91.054 -0.0940
16.221605 91.054 -0.0946
16.339155 91.054 -0.0950
16.457554 91.054 -0.0954
16.576813 91.054 -0.0960
16.696936 91.054 -0.0970
16.817928 91.054 -0.0980
16.939798 91.054 -0.0986
17.062551 91.054 -0.0990
17.186193 91.054 -0.0995
17.310732 91.054 -0.1000
17.436172 91.054 -0.1004
17.562521 91.054 -0.1010
17.689787 91.054 -0.1020
17.817974 91.054 -0.1030
17.947090 91.054 -0.1036
18.077143 91.054 -0.1040
18.208138 91.054 -0.1045
18.340080 91.054 -0.1050
18.472980 91.054 -0.1055
18.606844 91.054 -0.1060
18.741676 91.054 -0.1065
18.877487 91.054 -0.1070
19.014280 91.054 -0.1075
19.152065 91.054 -0.1080
19.290850 91.054 -0.1086
19.430639 91.054 -0.1090
19.571442 91.054 -0.1090
19.713264 91.054 -0.1090
19.856115 91.054 -0.1095
20.000000 91.054 -0.1100
20.144928 91.054 -0.1100
20.290907 91.054 -0.1100
20.437943 91.054 -0.1105
20.586044 91.054 -0.1110
20.735220 91.054 -0.1111
20.885475 91.054 -0.1110
21.036821 91.054 -0.1105
21.189262 91.054 -0.1100
21.342808 91.054 -0.1100
21.497467 91.054 -0.1100
21.653246 91.054 -0.1096
21.810154 91.054 -0.1090
21.968201 91.054 -0.1081
22.127390 91.054 -0.1070
22.287735 91.054 -0.1061
22.449242 91.054 -0.1050
22.611917 91.054 -0.1036
22.775772 91.054 -0.1020
22.940815 91.054 -0.1007
23.107054 91.054 -0.0990
23.274498 91.054 -0.0963
23.443153 91.054 -0.0930
23.613033 91.054 -0.0897
23.784142 91.054 -0.0860
23.956491 91.054 -0.0819
24.130091 91.054 -0.0770
24.304947 91.054 -0.0708
24.481071 91.054 -0.0630
24.658470 91.054 -0.0531
24.837156 91.054 -0.0410
25.017136 91.055 -0.0261
25.198421 91.056 -0.0090
25.381020 91.058 0.0107
25.564941 91.061 0.0300
25.750195 91.066 0.0475
25.936790 91.073 0.0590
26.124741 91.081 0.0592
26.314051 91.089 0.0490
26.504732 91.096 0.0275
26.696796 91.103 -0.0050
26.890253 91.110 -0.0492
27.085112 91.115 -0.1019
27.281382 91.117 -0.1629
27.479073 91.116 -0.2239
27.678198 91.111 -0.2773
27.878765 91.104 -0.3219
28.080786 91.097 -0.3538
28.284271 91.090 -0.3740
28.489231 91.082 -0.3821
28.695675 91.074 -0.3790
28.903616 91.067 -0.3643
29.113064 91.062 -0.3420
29.324028 91.059 -0.3159
29.536524 91.057 -0.2870
29.750557 91.056 -0.2579
29.966141 91.055 -0.2280
30.183289 91.055 -0.1977
30.402010 91.056 -0.1670
30.622314 91.058 -0.1355
30.844217 91.061 -0.1050
31.067726 91.066 -0.0758
31.292856 91.073 -0.0520
31.519617 91.081 -0.0382
31.748020 91.089 -0.0330
31.978081 91.097 -0.0365
32.209808 91.105 -0.0490
32.443211 91.113 -0.0712
32.678310 91.121 -0.1020
32.915108 91.128 -0.1421
33.153625 91.133 -0.1869
33.393871 91.136 -0.2325
33.635857 91.137 -0.2779
33.879597 91.138 -0.3209
34.125103 91.139 -0.3619
34.372387 91.139 -0.4005
34.621464 91.139 -0.4369
34.872345 91.139 -0.4710
35.125042 91.139 -0.5040
35.379574 91.139 -0.5375
35.635948 91.139 -0.5710
35.894180 91.139 -0.6043
36.154285 91.139 -0.6380
36.416275 91.139 -0.6724
36.680161 91.139 -0.7079
36.945961 91.139 -0.7446
37.213688 91.139 -0.7829
37.483353 91.139 -0.8235
37.754974 91.139 -0.8669
38.028561 91.139 -0.9139
38.304131 91.139 -0.9649
38.581699 91.138 -1.0206
38.861279 91.137 -1.0809
39.142883 91.135 -1.1467
39.426529 91.132 -1.2159
39.712231 91.127 -1.2880
40.000000 91.121 -1.3599
40.289856 91.113 -1.4278
40.581814 91.103 -1.4929
40.875885 91.093 -1.5553
41.172089 91.082 -1.6139
41.470440 91.069 -1.6684
41.770950 91.055 -1.7169
42.073643 91.040 -1.7562
42.378525 91.025 -1.7900
42.685616 91.011 -1.8213
42.994934 90.996 -1.8490
43.306492 90.979 -1.8745
43.620308 90.961 -1.8930
43.936401 90.941 -1.8995
44.254780 90.919 -1.8950
44.575470 90.898 -1.8794
44.898483 90.876 -1.8511
45.223835 90.853 -1.8091
45.551544 90.829 -1.7511
45.881630 90.805 -1.6743
46.214108 90.782 -1.5792
46.548996 90.760 -1.4655
46.886307 90.739 -1.3332
47.226067 90.719 -1.1817
47.568283 90.702 -1.0123
47.912983 90.688 -0.8243
48.260181 90.678 -0.6233
48.609894 90.672 -0.4130
48.962143 90.671 -0.1983
49.316940 90.675 0.0157
49.674313 90.683 0.2247
50.034271 90.695 0.4241
50.396843 90.712 0.6087
50.762039 90.733 0.7719
51.129883 90.757 0.9138
51.500389 90.781 1.0311
51.873581 90.805 1.1269
52.249481 90.829 1.2029
52.628101 90.854 1.2599
53.009464 90.878 1.2987
53.393593 90.902 1.3210
53.780506 90.925 1.3281
54.170223 90.946 1.3220
54.562763 90.966 1.3047
54.958145 90.984 1.2780
55.356396 91.000 1.2439
55.757530 91.014 1.2051
56.161572 91.027 1.1650
56.568542 91.038 1.1241
56.978462 91.049 1.0839
57.391350 91.059 1.0441
57.807232 91.068 1.0053
58.226128 91.077 0.9661
58.648056 91.086 0.9257
59.073048 91.095 0.8831
59.501114 91.103 0.8368
59.932281 91.111 0.7871
60.366577 91.119 0.7335
60.804020 91.126 0.6771
61.244629 91.131 0.6177
61.688435 91.135 0.5581
62.135452 91.137 0.5010
62.585712 91.138 0.4471
63.039234 91.139 0.3980
63.496040 91.139 0.3531
63.956161 91.139 0.3123
64.419617 91.139 0.2751
64.886421 91.139 0.2408
65.356621 91.139 0.2091
65.830215 91.139 0.1792
66.307251 91.139 0.1511
66.787743 91.139 0.1244
67.271713 91.139 0.0990
67.759193 91.139 0.0745
68.250206 91.139 0.0510
68.744774 91.139 0.0291
69.242928 91.139 0.0080
69.744690 91.139 -0.0128
70.250084 91.139 -0.0330
70.759148 91.139 -0.0523
71.271896 91.139 -0.0710
71.788361 91.139 -0.0892
72.308571 91.139 -0.1070
72.832550 91.139 -0.1242
73.360321 91.139 -0.1410
73.891922 91.139 -0.1572
74.427376 91.139 -0.1730
74.966705 91.139 -0.1882
75.509949 91.139 -0.2030
76.057121 91.139 -0.2175
76.608261 91.139 -0.2320
77.163399 91.139 -0.2467
77.722557 91.139 -0.2610
78.285767 91.139 -0.2741
78.853058 91.139 -0.2870
79.424461 91.139 -0.3005
80.000000 91.139 -0.3140
80.579712 91.139 -0.3267
81.163628 91.139 -0.3390
81.751770 91.139 -0.3511
82.344177 91.139 -0.3630
82.940880 91.139 -0.3745
83.541901 91.139 -0.3860
84.147285 91.139 -0.3975
84.757050 91.139 -0.4090
85.371231 91.139 -0.4201
85.989868 91.139 -0.4310
86.612984 91.139 -0.4415
87.240616 91.139 -0.4520
87.872803 91.139 -0.4625
88.509560 91.139 -0.4730
89.150940 91.139 -0.4831
89.796967 91.139 -0.4930
90.447670 91.139 -0.5025
91.103088 91.139 -0.5120
91.763260 91.139 -0.5215
92.428215 91.139 -0.5310
93.097992 91.139 -0.5400
93.772614 91.139 -0.5490
94.452133 91.139 -0.5581
95.136566 91.139 -0.5670
95.825966 91.139 -0.5751
96.520363 91.139 -0.5830
97.219788 91.139 -0.5910
97.924286 91.139 -0.5990
98.633881 91.139 -0.6071
99.348625 91.139 -0.6150
100.068542 91.139 -0.6221
100.793686 91.139 -0.6290
101.524078 91.139 -0.6361
102.259766 91.139 -0.6430
103.000778 91.139 -0.6492
103.747162 91.139 -0.6550
104.498962 91.139 -0.6606
105.256203 91.139 -0.6660
106.018929 91.139 -0.6717
106.787186 91.139 -0.6770
107.561012 91.139 -0.6812
108.340446 91.139 -0.6850
109.125526 91.139 -0.6892
109.916290 91.139 -0.6930
110.712791 91.139 -0.6959
111.515060 91.139 -0.6980
112.323143 91.139 -0.6993
113.137085 91.139 -0.7000
113.956924 91.139 -0.7004
114.782700 91.139 -0.7000
115.614464 91.139 -0.6986
116.452255 91.139 -0.6960
117.296112 91.139 -0.6924
118.146095 91.139 -0.6870
119.002228 91.139 -0.6793
119.864563 91.139 -0.6690
120.733154 91.139 -0.6560
121.608040 91.140 -0.6400
122.489258 91.142 -0.6201
123.376869 91.144 -0.5981
124.270905 91.147 -0.5745
125.171425 91.151 -0.5520
126.078468 91.157 -0.5328
126.992081 91.165 -0.5190
127.912323 91.173 -0.5136
128.839233 91.181 -0.5160
129.772842 91.189 -0.5271
130.713242 91.197 -0.5460
131.660431 91.204 -0.5726
132.614502 91.211 -0.6049
133.575485 91.216 -0.6417
134.543427 91.220 -0.6799
135.518387 91.222 -0.7166
136.500412 91.223 -0.7509
137.489548 91.224 -0.7808
138.485855 91.224 -0.8069
139.489380 91.224 -0.8296
140.500168 91.224 -0.8490
141.518295 91.224 -0.8651
142.543793 91.224 -0.8780
143.576721 91.224 -0.8877
144.617142 91.224 -0.8940
145.665100 91.224 -0.8964
146.720642 91.225 -0.8950
147.783844 91.226 -0.8893
148.854752 91.227 -0.8800
149.933411 91.229 -0.8672
151.019897 91.232 -0.8530
152.114243 91.237 -0.8388
153.216522 91.244 -0.8280
154.326797 91.252 -0.8250
155.445114 91.261 -0.8290
156.571533 91.269 -0.8409
157.706116 91.277 -0.8599
158.848923 91.285 -0.8859
160.000000 91.293 -0.9179
161.159424 91.299 -0.9565
162.327255 91.303 -0.9969
163.503540 91.306 -1.0352
164.688354 91.308 -1.0699
165.881760 91.309 -1.0981
167.083801 91.310 -1.1200
168.294571 91.311 -1.1342
169.514099 91.312 -1.1420
170.742462 91.313 -1.1429
171.979736 91.316 -1.1400
173.225967 91.321 -1.1349
174.481232 91.328 -1.1310
175.745605 91.336 -1.1328
177.019119 91.344 -1.1390
178.301880 91.352 -1.1498
179.593933 91.360 -1.1650
180.895340 91.369 -1.1842
182.206177 91.378 -1.2069
183.526520 91.387 -1.2331
184.856430 91.395 -1.2609
186.195984 91.403 -1.2880
187.545227 91.411 -1.3159
188.904266 91.420 -1.3456
190.273132 91.429 -1.3769
191.651932 91.438 -1.4100
193.040726 91.447 -1.4449
194.439575 91.457 -1.4810
195.848572 91.468 -1.5209
197.267761 91.479 -1.5677
198.697250 91.491 -1.6199
200.137085 91.502 -1.6775
201.587372 91.512 -1.7389
203.048157 91.522 -1.8016
204.519531 91.532 -1.8668
206.001556 91.542 -1.9338
207.494324 91.553 -2.0048
208.997925 91.564 -2.0817
210.512405 91.576 -2.1648
212.037857 91.587 -2.2558
213.574371 91.597 -2.3528
215.122025 91.606 -2.4538
216.680893 91.615 -2.5597
218.251053 91.624 -2.6708
219.832581 91.632 -2.7867
221.425583 91.638 -2.9082
223.030121 91.643 -3.0317
224.646286 91.646 -3.1541
226.274170 91.648 -3.2747
227.913849 91.649 -3.3913
229.565399 91.650 -3.5047
231.228928 91.650 -3.6148
232.904510 91.650 -3.7217
234.592224 91.650 -3.8252
236.292191 91.650 -3.9267
238.004456 91.650 -4.0275
239.729126 91.650 -4.1277
241.466309 91.650 -4.2279
243.216080 91.650 -4.3277
244.978516 91.650 -4.4270
246.753738 91.650 -4.5267
248.541809 91.650 -4.6277
250.342850 91.650 -4.7297
252.156937 91.650 -4.8324
253.984161 91.650 -4.9367
255.824646 91.650 -5.0433
257.678467 91.650 -5.1527
259.545685 91.650 -5.2659
261.426483 91.649 -5.3827
263.320862 91.648 -5.5034
265.229004 91.646 -5.6277
267.150970 91.644 -5.7561
269.086853 91.640 -5.8856
271.036774 91.634 -6.0139
273.000824 91.627 -6.1396
274.979095 91.619 -6.2607
276.971710 91.610 -6.3777
278.978760 91.601 -6.4904
281.000336 91.592 -6.5987
283.036591 91.582 -6.7023
285.087585 91.572 -6.8007
287.153442 91.561 -6.8933
289.234283 91.550 -6.9808
291.330200 91.540 -7.0630
293.441284 91.530 -7.1418
295.567688 91.521 -7.2187
297.709503 91.512 -7.2938
299.866821 91.503 -7.3679
302.039795 91.494 -7.4408
304.228485 91.486 -7.5124
306.433044 91.478 -7.5838
308.653595 91.470 -7.6570
310.890228 91.461 -7.7298
313.143066 91.452 -7.8006
315.412231 91.443 -7.8698
317.697845 91.435 -7.9374
320.000000 91.426 -8.0038
322.318848 91.417 -8.0694
324.654510 91.408 -8.1338
327.007080 91.400 -8.1962
329.376709 91.392 -8.2578
331.763519 91.384 -8.3199
334.167603 91.376 -8.3808
336.589142 91.367 -8.4391
339.028198 91.358 -8.4948
341.484924 91.349 -8.5472
343.959473 91.341 -8.5969
346.451935 91.333 -8.6437
348.962463 91.326 -8.6889
351.491211 91.320 -8.7324
354.038239 91.315 -8.7779
356.603760 91.312 -8.8288
359.187866 91.309 -8.8858
361.790680 91.306 -8.9519
364.412354 91.303 -9.0238
367.053040 91.298 -9.1004
369.712860 91.291 -9.1778
372.391968 91.283 -9.2517
375.090454 91.275 -9.3218
377.808533 91.267 -9.3864
380.546265 91.259 -9.4458
383.303864 91.251 -9.4997
386.081451 91.243 -9.5489
388.879150 91.236 -9.5924
391.697144 91.231 -9.6349
394.535522 91.228 -9.6803
397.394501 91.227 -9.7298
400.274170 91.225 -9.7862
403.174744 91.224 -9.8488
406.096313 91.224 -9.9178
409.039062 91.224 -9.9938
412.003113 91.224 -10.0770
414.988647 91.224 -10.1677
417.995850 91.224 -10.2659
421.024811 91.224 -10.3717
424.075714 91.223 -10.4853
427.148743 91.222 -10.6066
430.244049 91.220 -10.7362
433.361786 91.217 -10.8725
436.502106 91.212 -11.0154
439.665161 91.206 -11.1615
442.851166 91.197 -11.3074
446.060242 91.187 -11.4545
449.292572 91.177 -11.6038
452.548340 91.166 -11.7535
455.827698 91.152 -11.9032
459.130798 91.137 -12.0505
462.457855 91.121 -12.1923
465.809021 91.104 -12.3316
469.184448 91.087 -12.4711
472.584381 91.069 -12.6086
476.008911 91.047 -12.7431
479.458252 91.024 -12.8726
482.932617 91.001 -12.9943
486.432159 90.976 -13.1087
489.957031 90.950 -13.2164
493.507477 90.922 -13.3137
497.083618 90.892 -13.3973
500.685699 90.862 -13.4668
504.313873 90.832 -13.5207
507.968323 90.802 -13.5599
511.649292 90.772 -13.5857
515.356934 90.742 -13.5960
519.091370 90.712 -13.5886
522.852966 90.683 -13.5651
526.641724 90.657 -13.5250
530.458008 90.633 -13.4732
534.301941 90.613 -13.4137
538.173706 90.596 -13.3492
542.073547 90.581 -13.2831
546.001648 90.568 -13.2172
549.958191 90.559 -13.1533
553.943420 90.553 -13.0952
557.957520 90.549 -13.0470
562.000671 90.546 -13.0091
566.073181 90.545 -12.9841
570.175171 90.544 -12.9700
574.306885 90.544 -12.9659
578.468567 90.544 -12.9710
582.660400 90.544 -12.9846
586.882568 90.544 -13.0059
591.135376 90.544 -13.0341
595.419006 90.544 -13.0689
599.733643 90.544 -13.1094
604.079590 90.544 -13.1558
608.456970 90.544 -13.2080
612.866089 90.544 -13.2658
617.307190 90.544 -13.3289
621.780457 90.544 -13.3978
626.286133 90.544 -13.4726
630.824463 90.544 -13.5537
635.395691 90.544 -13.6415
640.000000 90.544 -13.7367
644.637695 90.544 -13.8398
649.309021 90.544 -13.9516
654.014160 90.543 -14.0729
658.753418 90.542 -14.2035
663.527039 90.541 -14.3441
668.335205 90.538 -14.4935
673.178284 90.533 -14.6520
678.056396 90.526 -14.8164
682.969849 90.518 -14.9834
687.918945 90.508 -15.1544
692.903870 90.498 -15.3299
697.924927 90.487 -15.5094
702.982422 90.473 -15.6932
708.076477 90.457 -15.8793
713.207520 90.441 -16.0646
718.375732 90.423 -16.2523
723.581360 90.405 -16.4460
728.824707 90.384 -16.6423
734.106079 90.360 -16.8400
739.425720 90.334 -17.0363
744.783936 90.306 -17.2272
750.180908 90.277 -17.4153
755.617065 90.247 -17.6020
761.092529 90.216 -17.7873
766.607727 90.182 -17.9726
772.162903 90.145 -18.1554
777.758301 90.106 -18.3336
783.394287 90.064 -18.5064
789.071045 90.021 -18.6731
794.789001 89.974 -18.8315
800.548340 89.924 -18.9809
806.349487 89.871 -19.1156
812.192627 89.815 -19.2298
818.078125 89.755 -19.3217
824.006226 89.694 -19.3880
829.977295 89.631 -19.4279
835.991699 89.567 -19.4398
842.049622 89.501 -19.4231
848.151428 89.436 -19.3763
854.297485 89.372 -19.3013
860.488098 89.309 -19.1993
866.723572 89.248 -19.0715
873.004211 89.189 -18.9192
879.330322 89.131 -18.7437
885.702332 89.076 -18.5464
892.120483 89.023 -18.3278
898.585144 88.973 -18.0888
905.096680 88.925 -17.8300
911.655396 88.881 -17.5515
918.261597 88.840 -17.2561
924.915710 88.804 -16.9457
931.618042 88.772 -16.6232
938.368896 88.745 -16.2912
945.168762 88.723 -15.9533
952.017822 88.706 -15.6125
958.916504 88.695 -15.2733
965.865234 88.689 -14.9402
972.864319 88.688 -14.6162
979.914062 88.691 -14.3043
987.014954 88.699 -14.0081
994.167236 88.712 -13.7320
1001.371399 88.728 -13.4769
1008.627747 88.747 -13.2449
1015.936646 88.768 -13.0368
1023.298584 88.792 -12.8530
1030.713867 88.819 -12.6975
1038.182739 88.848 -12.5745
1045.705933 88.879 -12.4843
1053.283447 88.908 -12.4294
1060.916016 88.937 -12.4070
1068.603882 88.965 -12.4158
1076.347412 88.991 -12.4548
1084.147095 89.015 -12.5233
1092.003296 89.036 -12.6186
1099.916382 89.053 -12.7391
1107.886841 89.067 -12.8804
1115.915039 89.076 -13.0388
1124.001343 89.080 -13.2103
1132.146362 89.079 -13.3915
1140.350342 89.073 -13.5773
1148.613770 89.062 -13.7622
1156.937134 89.046 -13.9442
1165.320801 89.027 -14.1197
1173.765137 89.004 -14.2883
1182.270752 88.977 -14.4501
1190.838013 88.945 -14.5994
1199.467285 88.908 -14.7315
1208.159180 88.867 -14.8436
1216.913940 88.824 -14.9316
1225.732178 88.778 -14.9948
1234.614380 88.729 -15.0335
1243.560913 88.677 -15.0410
1252.572266 88.623 -15.0106
1261.648926 88.567 -14.9433
1270.791382 88.513 -14.8374
1280.000000 88.461 -14.6956
1289.275391 88.411 -14.5188
1298.618042 88.363 -14.3109
1308.028320 88.321 -14.0725
1317.506836 88.283 -13.8141
1327.054077 88.252 -13.5446
1336.670410 88.227 -13.2701
1346.356567 88.206 -12.9984
1356.112793 88.189 -12.7330
1365.939697 88.177 -12.4794
1375.837891 88.167 -12.2390
1385.807739 88.158 -12.0166
1395.849854 88.149 -11.8068
1405.964844 88.139 -11.6076
1416.152954 88.128 -11.4127
1426.415039 88.115 -11.2171
1436.751465 88.100 -11.0148
1447.162720 88.084 -10.7986
1457.649414 88.068 -10.5680
1468.212158 88.054 -10.3193
1478.851440 88.041 -10.0550
1489.567871 88.030 -9.7750
1500.361816 88.022 -9.4841
1511.234131 88.019 -9.1851
1522.185059 88.021 -8.8853
1533.215454 88.027 -8.5929
1544.325806 88.036 -8.3092
1555.516602 88.048 -8.0380
1566.788574 88.062 -7.7811
1578.142090 88.079 -7.5425
1589.578003 88.097 -7.3199
1601.096680 88.113 -7.1131
1612.698975 88.129 -6.9188
1624.385254 88.145 -6.7333
1636.156250 88.161 -6.5578
1648.012451 88.177 -6.3938
1659.954590 88.191 -6.2356
1671.983398 88.202 -6.0784
1684.099243 88.212 -5.9207
1696.302856 88.222 -5.7592
1708.594971 88.232 -5.5938
1720.976196 88.240 -5.4237
1733.447144 88.248 -5.2468
1746.008423 88.256 -5.0595
1758.660645 88.265 -4.8648
1771.404663 88.275 -4.6647
1784.240967 88.286 -4.4589
1797.170288 88.297 -4.2470
1810.193359 88.310 -4.0309
1823.310791 88.324 -3.8120
1836.523193 88.339 -3.5909
1849.831421 88.354 -3.3709
1863.236084 88.369 -3.1450
1876.737793 88.382 -2.9081
1890.337524 88.395 -2.6581
1904.035645 88.410 -2.3909
1917.833008 88.427 -2.1082
1931.730469 88.446 -1.8105
1945.728638 88.467 -1.4964
1959.828125 88.491 -1.1618
1974.029907 88.520 -0.8145
1988.334473 88.556 -0.4579
2002.742798 88.599 -0.1004
2017.255493 88.647 0.2496
2031.873291 88.701 0.5887
2046.597168 88.760 0.9130
2061.427734 88.825 1.2157
2076.365479 88.895 1.4893
2091.411865 88.969 1.7321
2106.566895 89.043 1.9378
2121.832031 89.119 2.1133
2137.207764 89.193 2.2619
2152.694824 89.267 2.3875
2168.294189 89.340 2.4940
2184.006592 89.413 2.5846
2199.832764 89.483 2.6623
2215.773682 89.553 2.7317
2231.830078 89.622 2.7989
2248.002686 89.691 2.8627
2264.292725 89.761 2.9248
2280.700684 89.834 2.9828
2297.227539 89.908 3.0354
2313.874268 89.984 3.0808
2330.641602 90.061 3.1177
2347.530273 90.141 3.1439
2364.541504 90.223 3.1573
2381.676025 90.308 3.1570
2398.934570 90.393 3.1415
2416.318359 90.481 3.1102
2433.827881 90.571 3.0626
2451.464355 90.663 2.9963
2469.228760 90.756 2.9100
2487.121826 90.853 2.8005
2505.144531 90.952 2.6654
2523.297852 91.053 2.5008
2541.582764 91.155 2.3031
2560.000000 91.258 2.0701
2578.550781 91.362 1.7989
2597.236084 91.466 1.4885
2616.056641 91.568 1.1369
2635.013672 91.669 0.7447
2654.108154 91.766 0.3107
2673.340820 91.860 -0.1609
2692.713135 91.948 -0.6669
2712.225586 92.033 -1.2044
2731.879395 92.112 -1.7710
2751.675781 92.186 -2.3622
2771.615479 92.252 -2.9750
2791.699707 92.312 -3.6022
2811.929688 92.363 -4.2371
2832.305908 92.408 -4.8750
2852.830078 92.446 -5.5115
2873.502930 92.476 -6.1383
2894.325439 92.497 -6.7494
2915.298828 92.512 -7.3344
2936.424316 92.520 -7.8810
2957.702881 92.524 -8.3889
2979.135742 92.526 -8.8537
3000.723633 92.526 -9.2753
3022.468262 92.524 -9.6515
3044.370117 92.523 -9.9836
3066.430908 92.525 -10.2684
3088.651611 92.532 -10.5170
3111.033203 92.545 -10.7375
3133.577148 92.563 -10.9361
3156.284180 92.586 -11.1195
3179.156006 92.616 -11.2932
3202.193359 92.652 -11.4631
3225.397949 92.694 -11.6352
3248.770508 92.741 -11.8163
3272.312500 92.794 -12.0091
3296.024902 92.851 -12.2170
3319.909180 92.914 -12.4449
3343.966797 92.982 -12.6976
3368.198486 93.054 -12.9796
3392.605713 93.129 -13.2956
3417.189941 93.208 -13.6493
3441.952393 93.289 -14.0460
3466.894287 93.371 -14.4859
3492.016846 93.452 -14.9728
3517.321289 93.531 -15.5015
3542.809326 93.607 -16.0697
3568.481934 93.680 -16.6721
3594.340576 93.748 -17.3042
3620.386719 93.813 -17.9608
3646.621582 93.872 -18.6361
3673.046387 93.929 -19.3287
3699.662842 93.982 -20.0337
3726.472168 94.034 -20.7556
3753.475586 94.084 -21.4969
3780.675049 94.131 -22.2585
3808.071289 94.173 -23.0433
3835.666016 94.211 -23.8481
3863.460938 94.243 -24.6734
3891.457275 94.269 -25.5110
3919.656250 94.286 -26.3570
3948.059814 94.295 -27.1991
3976.668945 94.295 -28.0268
4005.485596 94.287 -28.8311
4034.510986 94.273 -29.6002
4063.746582 94.255 -30.3326
4093.194336 94.233 -31.0213
4122.855469 94.210 -31.6709
4152.730957 94.188 -32.2812
4182.823730 94.168 -32.8603
4213.133789 94.150 -33.4152
4243.664062 94.134 -33.9495
4274.415527 94.119 -34.4688
4305.389648 94.105 -34.9746
4336.588379 94.093 -35.4699
4368.013184 94.083 -35.9557
4399.665527 94.073 -36.4345
4431.547363 94.063 -36.9037
4463.660156 94.053 -37.3626
4496.005371 94.042 -37.8078
4528.585449 94.031 -38.2364
4561.401367 94.019 -38.6461
4594.455078 94.008 -39.0338
4627.748535 93.998 -39.3993
4661.283203 93.989 -39.7426
4695.060547 93.982 -40.0595
4729.083008 93.975 -40.3460
4763.352051 93.970 -40.6009
4797.869141 93.970 -40.8216
4832.636719 93.974 -41.0091
4867.655762 93.983 -41.1635
4902.928711 93.998 -41.2845
4938.457520 94.020 -41.3703
4974.243652 94.051 -41.4258
5010.289062 94.093 -41.4518
5046.595703 94.147 -41.4580
5083.165527 94.215 -41.4515
5120.000000 94.298 -41.4410
5157.101562 94.395 -41.4341
5194.472168 94.509 -41.4419
5232.113281 94.641 -41.4729
5270.027344 94.790 -41.5425
5308.216309 94.959 -41.6627
5346.681641 95.148 -41.8519
5385.426270 95.357 -42.1258
5424.451172 95.585 -42.5049
5463.758789 95.833 -43.0051
5503.351562 96.099 -43.6554
5543.230957 96.383 -44.4822
5583.399414 96.679 -45.5094
5623.859375 96.982 -46.7677
5664.611816 97.287 -48.2641
5705.660156 97.585 -50.0181
5747.005859 97.872 -52.0220
5788.650879 98.140 -54.2822
5830.597656 98.385 -56.7746
5872.848633 98.600 -59.4876
5915.405762 98.783 -62.3896
5958.271484 98.932 -65.4567
6001.447266 99.043 -68.6542
6044.936523 99.113 -71.9521
6088.740234 99.142 -75.3130
6132.861816 99.129 -78.7024
6177.303223 99.075 -82.0821
6222.066406 98.979 -85.4137
6267.154297 98.843 -88.6639
6312.568359 98.669 -91.7952
6358.312012 98.461 -94.7824
6404.386719 98.221 -97.5921
6450.795898 97.955 -100.2120
6497.541016 97.668 -102.6184
6544.625000 97.365 -104.8125
6592.049805 97.053 -106.7819
6639.818359 96.739 -108.5454
6687.933594 96.429 -110.1083
6736.396973 96.128 -111.4992
6785.211426 95.839 -112.7387
6834.379883 95.567 -113.8575
6883.904785 95.316 -114.8813
6933.788574 95.085 -115.8461
6984.033691 94.878 -116.7850
7034.642578 94.693 -117.7331
7085.618652 94.530 -118.7303
7136.963867 94.384 -119.7964
7188.681152 94.248 -120.9632
7240.773438 94.119 -122.2353
7293.243164 93.991 -123.6304
7346.092773 93.860 -125.1411
7399.325684 93.718 -126.7731
7452.944336 93.563 -128.5051
7506.951172 93.387 -130.3259
7561.350098 93.190 -132.2102
7616.142578 92.967 -134.1378
7671.332031 92.717 -136.0810
7726.921875 92.439 -138.0145
7782.914551 92.132 -139.9104
7839.312500 91.794 -141.7415
7896.119629 91.426 -143.4821
7953.337891 91.029 -145.1054
8010.971191 90.604 -146.5876
8069.021973 90.151 -147.9040
8127.493164 89.672 -149.0306
8186.388672 89.168 -149.9436
8245.710938 88.643 -150.6181
8305.461914 88.096 -151.0349
8365.647461 87.530 -151.1532
8426.267578 86.945 -150.9399
8487.328125 86.346 -150.3522
8548.831055 85.738 -149.3416
8610.779297 85.131 -147.8919
8673.176758 84.533 -145.9622
8736.026367 83.962 -143.5781
8799.331055 83.433 -140.7217
8863.094727 82.971 -137.4830
8927.320312 82.601 -133.8996
8992.010742 82.340 -130.1134
9057.170898 82.214 -126.2291
9122.802734 82.216 -122.3969
9188.910156 82.354 -118.7617
9255.497070 82.602 -115.4448
9322.566406 82.950 -112.5971
9390.121094 83.363 -110.2747
9458.166016 83.811 -108.5933
9526.704102 84.271 -107.5250
9595.738281 84.710 -107.1093
9665.273438 85.119 -107.2578
9735.311523 85.475 -107.9307
9805.857422 85.778 -109.0191
9876.915039 86.016 -110.4364
9948.487305 86.191 -112.0757
10020.578125 86.300 -113.8291
10093.191406 86.349 -115.6124
10166.331055 86.341 -117.3211
10240.000000 86.286 -118.9081
10314.203125 86.191 -120.2977
10388.944336 86.065 -121.4710
10464.226562 85.917 -122.3805
10540.054688 85.760 -123.0369
10616.432617 85.604 -123.4221
10693.363281 85.461 -123.5737
10770.852539 85.342 -123.5040
10848.902344 85.255 -123.2726
10927.517578 85.213 -122.9172
11006.703125 85.218 -122.5172
11086.461914 85.279 -122.1416
11166.798828 85.386 -121.8602
11247.718750 85.538 -121.7560
11329.223633 85.720 -121.8579
11411.320312 85.921 -122.2225
11494.011719 86.133 -122.8479
11577.301758 86.346 -123.7578
11661.195312 86.554 -124.9308
11745.697266 86.747 -126.3640
11830.811523 86.923 -128.0254
11916.542969 87.077 -129.8871
12002.894531 87.210 -131.9332
12089.873047 87.323 -134.1407
12177.480469 87.412 -136.5031
12265.723633 87.475 -139.0094
12354.606445 87.512 -141.6513
12444.132812 87.520 -144.4251
12534.308594 87.495 -147.3071
12625.136719 87.431 -150.2894
12716.624023 87.325 -153.3209
12808.773438 87.170 -156.3671
12901.591797 86.969 -159.3702
12995.082031 86.719 -162.2782
13089.250000 86.423 -165.0386
13184.099609 86.081 -167.5903
13279.636719 85.702 -169.9067
13375.867188 85.291 -171.9372
13472.793945 84.859 -173.6938
13570.422852 84.416 -175.1570
13668.759766 83.971 -176.3715
13767.809570 83.534 -177.3586
13867.577148 83.110 -178.1697
13968.067383 82.709 -178.8508
14069.285156 82.325 -179.4408
14171.237305 81.961 -179.9939
14273.927734 81.607 179.4886
14377.362305 81.257 178.9730
14481.546875 80.902 178.5033
14586.486328 80.533 178.0895
14692.185547 80.146 177.8012
14798.651367 79.736 177.6884
14905.888672 79.306 177.8204
15013.902344 78.853 178.2762
15122.700195 78.397 179.0774
15232.285156 77.947 -179.7094
15342.664062 77.526 -178.1416
15453.843750 77.156 -176.2132
15565.829102 76.857 -174.0482
15678.625000 76.657 -171.7192
15792.239258 76.554 -169.3775
15906.675781 76.568 -167.1617
16021.942383 76.671 -165.1838
16138.043945 76.852 -163.5932
16254.986328 77.084 -162.4165
16372.777344 77.338 -161.7438
16491.421875 77.601 -161.5329
16610.923828 77.848 -161.7958
16731.294922 78.075 -162.4571
16852.535156 78.268 -163.4645
16974.656250 78.431 -164.7594
17097.662109 78.561 -166.2701
17221.558594 78.663 -167.9830
17346.353516 78.742 -169.8593
17472.052734 78.793 -171.9041
17598.662109 78.816 -174.1121
17726.189453 78.808 -176.4778
17854.640625 78.768 -179.0061
17984.021484 78.686 178.3400
18114.341797 78.554 175.5627
18245.605469 78.365 172.7628
18377.820312 78.104 170.0068
18510.994141 77.778 167.4025
18645.132812 77.387 165.0612
18780.242188 76.941 163.0410
18916.332031 76.443 161.4318
19053.408203 75.909 160.2474
19191.476562 75.344 159.5509
19330.546875 74.774 159.2843
19470.623047 74.225 159.4445
19611.714844 73.710 159.9275
19753.830078 73.248 160.6559
19896.974609 72.839 161.5453
