* Measurement data measured by REW V5.20.13
* Source: C:\Users\kurin\Desktop\Targets and Curves\Resolve\Img\Files\HE1 Gras_SPL.txt
* Format: Comma/Tab/Space delimited data
* Dated: Aug 14, 2023 6:54:09 PM
* REW Settings:
*  C-weighting compensation: Off
*  Target level: 75.0 dB
* Note: ; Measurement imported from C:\Users\kurin\Desktop\Targets and Curves\Resolve\Img\Files\HE1 Gras_SPL.txt Format: Comma/Tab/Space delimited data 623 values loaded, 5 Hz to 39,792 Hz log spaced 
* Measurement: HE1 Gras_SPL
* Smoothing: 1/48 octave
* Frequency Step: 1/96 octave
* Start Frequency: 5.000 Hz
*
* Freq(Hz) SPL(dB) Phase(degrees)
5.000000 89.682 -4.5760
5.036232 89.681 -4.5736
5.072727 89.679 -4.5710
5.109486 89.677 -4.5682
5.146511 89.674 -4.5650
5.183805 89.672 -4.5611
5.221369 89.669 -4.5570
5.259205 89.666 -4.5531
5.297316 89.662 -4.5490
5.335702 89.659 -4.5446
5.374367 89.655 -4.5400
5.413311 89.652 -4.5355
5.452538 89.648 -4.5310
5.492050 89.645 -4.5266
5.531847 89.641 -4.5220
5.571934 89.637 -4.5170
5.612310 89.633 -4.5120
5.652979 89.629 -4.5075
5.693943 89.626 -4.5030
5.735204 89.623 -4.4981
5.776763 89.619 -4.4930
5.818624 89.616 -4.4880
5.860788 89.612 -4.4830
5.903258 89.609 -4.4780
5.946035 89.605 -4.4730
5.989123 89.602 -4.4680
6.032523 89.598 -4.4630
6.076237 89.594 -4.4580
6.120268 89.590 -4.4530
6.164618 89.586 -4.4481
6.209289 89.583 -4.4430
6.254284 89.579 -4.4376
6.299605 89.576 -4.4320
6.345255 89.573 -4.4265
6.391235 89.569 -4.4210
6.437549 89.565 -4.4155
6.484198 89.562 -4.4100
6.531185 89.559 -4.4045
6.578513 89.555 -4.3990
6.626183 89.551 -4.3935
6.674199 89.547 -4.3880
6.722563 89.543 -4.3826
6.771278 89.540 -4.3770
6.820345 89.536 -4.3711
6.869768 89.533 -4.3650
6.919549 89.530 -4.3590
6.969691 89.526 -4.3530
7.020196 89.522 -4.3470
7.071068 89.519 -4.3410
7.122308 89.516 -4.3350
7.173919 89.512 -4.3290
7.225904 89.508 -4.3231
7.278266 89.504 -4.3170
7.331007 89.500 -4.3105
7.384131 89.497 -4.3040
7.437639 89.493 -4.2980
7.491535 89.490 -4.2920
7.545822 89.487 -4.2856
7.600502 89.483 -4.2790
7.655579 89.479 -4.2726
7.711054 89.476 -4.2660
7.766932 89.473 -4.2590
7.823214 89.469 -4.2520
7.879904 89.465 -4.2455
7.937005 89.461 -4.2390
7.994520 89.457 -4.2321
8.052452 89.454 -4.2250
8.110803 89.451 -4.2180
8.169578 89.447 -4.2110
8.228777 89.444 -4.2041
8.288406 89.440 -4.1970
8.348468 89.437 -4.1896
8.408964 89.433 -4.1820
8.469899 89.430 -4.1745
8.531276 89.426 -4.1670
8.593097 89.422 -4.1595
8.655366 89.418 -4.1520
8.718086 89.414 -4.1445
8.781260 89.411 -4.1370
8.844893 89.408 -4.1296
8.908987 89.404 -4.1220
8.973545 89.401 -4.1141
9.038571 89.397 -4.1060
9.104069 89.394 -4.0980
9.170040 89.390 -4.0900
9.236490 89.387 -4.0821
9.303422 89.383 -4.0740
9.370838 89.379 -4.0656
9.438744 89.375 -4.0570
9.507140 89.371 -4.0485
9.576033 89.368 -4.0400
9.645425 89.365 -4.0315
9.715320 89.361 -4.0230
9.785721 89.357 -4.0146
9.856632 89.354 -4.0060
9.928058 89.351 -3.9971
10.000000 89.347 -3.9880
10.072464 89.344 -3.9790
10.145453 89.340 -3.9700
10.218971 89.336 -3.9611
10.293022 89.332 -3.9520
10.367610 89.328 -3.9426
10.442738 89.325 -3.9330
10.518411 89.322 -3.9235
10.594631 89.318 -3.9140
10.671404 89.314 -3.9046
10.748734 89.311 -3.8950
10.826623 89.308 -3.8851
10.905077 89.304 -3.8750
10.984100 89.301 -3.8650
11.063695 89.297 -3.8550
11.143867 89.293 -3.8451
11.224621 89.289 -3.8350
11.305959 89.285 -3.8246
11.387886 89.282 -3.8140
11.470407 89.279 -3.8036
11.553527 89.275 -3.7930
11.637249 89.271 -3.7821
11.721577 89.268 -3.7710
11.806517 89.265 -3.7600
11.892071 89.261 -3.7490
11.978246 89.258 -3.7381
12.065045 89.254 -3.7270
12.152473 89.250 -3.7156
12.240536 89.246 -3.7040
12.329235 89.242 -3.6926
12.418578 89.239 -3.6810
12.508568 89.236 -3.6691
12.599211 89.232 -3.6570
12.690510 89.229 -3.6451
12.782471 89.225 -3.6330
12.875097 89.222 -3.6206
12.968395 89.218 -3.6080
13.062370 89.215 -3.5955
13.157025 89.211 -3.5830
13.252366 89.207 -3.5706
13.348398 89.203 -3.5580
13.445127 89.199 -3.5451
13.542556 89.196 -3.5320
13.640691 89.193 -3.5191
13.739536 89.189 -3.5060
13.839099 89.186 -3.4926
13.939383 89.182 -3.4790
14.040393 89.179 -3.4651
14.142136 89.175 -3.4510
14.244616 89.172 -3.4371
14.347837 89.168 -3.4230
14.451808 89.164 -3.4086
14.556532 89.160 -3.3940
14.662014 89.156 -3.3795
14.768262 89.153 -3.3650
14.875278 89.150 -3.3506
14.983070 89.146 -3.3360
15.091644 89.143 -3.3211
15.201005 89.139 -3.3060
15.311157 89.136 -3.2906
15.422109 89.132 -3.2750
15.533863 89.129 -3.2595
15.646428 89.125 -3.2440
15.759809 89.121 -3.2286
15.874010 89.117 -3.2130
15.989040 89.113 -3.1971
16.104904 89.110 -3.1810
16.221605 89.106 -3.1651
16.339155 89.103 -3.1490
16.457554 89.100 -3.1326
16.576813 89.096 -3.1160
16.696936 89.092 -3.0991
16.817928 89.089 -3.0820
16.939798 89.086 -3.0650
17.062551 89.082 -3.0480
17.186193 89.078 -3.0310
17.310732 89.074 -3.0140
17.436172 89.070 -2.9970
17.562521 89.067 -2.9800
17.689787 89.063 -2.9630
17.817974 89.060 -2.9460
17.947090 89.057 -2.9295
18.077143 89.053 -2.9130
18.208138 89.049 -2.8965
18.340080 89.046 -2.8800
18.472980 89.043 -2.8638
18.606844 89.039 -2.8480
18.741676 89.035 -2.8331
18.877487 89.031 -2.8190
19.014280 89.027 -2.8057
19.152065 89.024 -2.7940
19.290850 89.021 -2.7846
19.430639 89.017 -2.7780
19.571442 89.013 -2.7748
19.713264 89.009 -2.7750
19.856115 89.004 -2.7794
20.000000 88.997 -2.7860
20.144928 88.989 -2.7946
20.290907 88.979 -2.8000
20.437943 88.966 -2.7976
20.586044 88.951 -2.7860
20.735220 88.937 -2.7629
20.885475 88.922 -2.7270
21.036821 88.905 -2.6763
21.189262 88.888 -2.6111
21.342808 88.873 -2.5294
21.497467 88.859 -2.4361
21.653246 88.848 -2.3357
21.810154 88.838 -2.2281
21.968201 88.829 -2.1146
22.127390 88.821 -1.9961
22.287735 88.816 -1.8736
22.449242 88.812 -1.7491
22.611917 88.809 -1.6253
22.775772 88.808 -1.5012
22.940815 88.808 -1.3752
23.107054 88.810 -1.2512
23.274498 88.815 -1.1327
23.443153 88.820 -1.0182
23.613033 88.824 -0.9082
23.784142 88.829 -0.8001
23.956491 88.835 -0.6907
24.130091 88.842 -0.5811
24.304947 88.850 -0.4728
24.481071 88.858 -0.3621
24.658470 88.867 -0.2439
24.837156 88.878 -0.1252
25.017136 88.895 -0.0088
25.198421 88.916 0.0979
25.381020 88.940 0.1878
25.564941 88.966 0.2579
25.750195 88.995 0.3052
25.936790 89.027 0.3230
26.124741 89.060 0.3025
26.314051 89.093 0.2471
26.504732 89.122 0.1559
26.696796 89.149 0.0332
26.890253 89.173 -0.1184
27.085112 89.192 -0.2948
27.281382 89.206 -0.4940
27.479073 89.214 -0.7077
27.678198 89.215 -0.9275
27.878765 89.210 -1.1517
28.080786 89.202 -1.3773
28.284271 89.188 -1.5997
28.489231 89.166 -1.8153
28.695675 89.138 -2.0177
28.903616 89.105 -2.2003
29.113064 89.067 -2.3608
29.324028 89.024 -2.4965
29.536524 88.975 -2.6019
29.750557 88.922 -2.6718
29.966141 88.864 -2.7020
30.183289 88.803 -2.6877
30.402010 88.740 -2.6251
30.622314 88.674 -2.5085
30.844217 88.607 -2.3382
31.067726 88.542 -2.1115
31.292856 88.479 -1.8325
31.519617 88.420 -1.5048
31.748020 88.363 -1.1275
31.978081 88.309 -0.7004
32.209808 88.259 -0.2246
32.443211 88.217 0.2999
32.678310 88.181 0.8692
32.915108 88.152 1.4792
33.153625 88.131 2.1302
33.393871 88.118 2.8235
33.635857 88.117 3.5519
33.879597 88.129 4.3139
34.125103 88.156 5.0939
34.372387 88.199 5.8821
34.621464 88.259 6.6598
34.872345 88.338 7.4119
35.125042 88.435 8.1192
35.379574 88.548 8.7622
35.635948 88.675 9.3264
35.894180 88.815 9.7938
36.154285 88.964 10.1546
36.416275 89.120 10.3924
36.680161 89.279 10.5079
36.945961 89.436 10.4924
37.213688 89.588 10.3583
37.483353 89.731 10.1113
37.754974 89.864 9.7636
38.028561 89.985 9.3229
38.304131 90.093 8.8077
38.581699 90.183 8.2315
38.861279 90.256 7.6170
39.142883 90.311 6.9851
39.426529 90.350 6.3549
39.712231 90.372 5.7480
40.000000 90.380 5.1768
40.289856 90.376 4.6577
40.581814 90.362 4.1996
40.875885 90.338 3.8153
41.172089 90.309 3.5094
41.470440 90.277 3.2926
41.770950 90.245 3.1592
42.073643 90.218 3.1120
42.378525 90.198 3.1359
42.685616 90.189 3.2237
42.994934 90.192 3.3538
43.306492 90.210 3.5110
43.620308 90.243 3.6698
43.936401 90.293 3.8063
44.254780 90.357 3.8999
44.575470 90.433 3.9248
44.898483 90.517 3.8732
45.223835 90.604 3.7268
45.551544 90.692 3.4914
45.881630 90.776 3.1615
46.214108 90.853 2.7517
46.548996 90.920 2.2664
46.886307 90.975 1.7299
47.226067 91.014 1.1613
47.568283 91.041 0.5800
47.912983 91.056 0.0096
48.260181 91.061 -0.5441
48.609894 91.058 -1.0698
48.962143 91.048 -1.5613
49.316940 91.031 -2.0078
49.674313 91.010 -2.4114
50.034271 90.990 -2.7667
50.396843 90.972 -3.0855
50.762039 90.957 -3.3752
51.129883 90.945 -3.6446
51.500389 90.936 -3.9034
51.873581 90.931 -4.1566
52.249481 90.929 -4.4100
52.628101 90.929 -4.6706
53.009464 90.933 -4.9453
53.393593 90.939 -5.2395
53.780506 90.945 -5.5631
54.170223 90.950 -5.9094
54.562763 90.950 -6.2769
54.958145 90.947 -6.6604
55.356396 90.941 -7.0546
55.757530 90.931 -7.4584
56.161572 90.917 -7.8716
56.568542 90.897 -8.2853
56.978462 90.871 -8.6912
57.391350 90.840 -9.0863
57.807232 90.807 -9.4647
58.226128 90.770 -9.8264
58.648056 90.730 -10.1706
59.073048 90.686 -10.4935
59.501114 90.640 -10.7896
59.932281 90.593 -11.0625
60.366577 90.546 -11.3133
60.804020 90.499 -11.5436
61.244629 90.451 -11.7559
61.688435 90.403 -11.9487
62.135452 90.355 -12.1207
62.585712 90.307 -12.2738
63.039234 90.261 -12.4075
63.496040 90.217 -12.5278
63.956161 90.175 -12.6411
64.419617 90.134 -12.7458
64.886421 90.093 -12.8426
65.356621 90.053 -12.9319
65.830215 90.014 -13.0134
66.307251 89.976 -13.0889
66.787743 89.940 -13.1598
67.271713 89.904 -13.2269
67.759193 89.870 -13.2905
68.250206 89.836 -13.3529
68.744774 89.804 -13.4173
69.242928 89.772 -13.4809
69.744690 89.739 -13.5418
70.250084 89.705 -13.6009
70.759148 89.673 -13.6579
71.271896 89.642 -13.7139
71.788361 89.610 -13.7709
72.308571 89.577 -13.8259
72.832550 89.544 -13.8768
73.360321 89.511 -13.9229
73.891922 89.477 -13.9636
74.427376 89.442 -13.9969
74.966705 89.408 -14.0204
75.509949 89.374 -14.0360
76.057121 89.341 -14.0434
76.608261 89.310 -14.0470
77.163399 89.281 -14.0516
77.722557 89.253 -14.0560
78.285767 89.224 -14.0610
78.853058 89.195 -14.0660
79.424461 89.167 -14.0702
80.000000 89.140 -14.0750
80.579712 89.112 -14.0833
81.163628 89.083 -14.0890
81.751770 89.053 -14.0868
82.344177 89.022 -14.0770
82.940880 88.993 -14.0570
83.541901 88.964 -14.0311
84.147285 88.937 -14.0022
84.757050 88.911 -13.9711
85.371231 88.886 -13.9373
85.989868 88.862 -13.9061
86.612984 88.841 -13.8835
87.240616 88.821 -13.8660
87.872803 88.797 -13.8528
88.509560 88.773 -13.8410
89.150940 88.749 -13.8279
89.796967 88.725 -13.8130
90.447670 88.700 -13.7962
91.103088 88.674 -13.7741
91.763260 88.647 -13.7408
92.428215 88.622 -13.7031
93.097992 88.601 -13.6661
93.772614 88.580 -13.6291
94.452133 88.556 -13.5932
95.136566 88.533 -13.5571
95.825966 88.513 -13.5183
96.520363 88.493 -13.4811
97.219788 88.473 -13.4509
97.924286 88.452 -13.4221
98.633881 88.430 -13.3901
99.348625 88.408 -13.3571
100.068542 88.388 -13.3228
100.793686 88.368 -13.2901
101.524078 88.348 -13.2633
102.259766 88.327 -13.2371
103.000778 88.304 -13.2068
103.747162 88.281 -13.1741
104.498962 88.260 -13.1384
105.256203 88.239 -13.1021
106.018929 88.217 -13.0689
106.787186 88.195 -13.0341
107.561012 88.172 -12.9934
108.340446 88.148 -12.9491
109.125526 88.126 -12.9011
109.916290 88.104 -12.8521
110.712791 88.082 -12.8065
111.515060 88.059 -12.7581
112.323143 88.034 -12.7015
113.137085 88.008 -12.6391
113.956924 87.985 -12.5718
114.782700 87.963 -12.4992
115.614464 87.938 -12.4229
116.452255 87.913 -12.3382
117.296112 87.889 -12.2385
118.146095 87.867 -12.1312
119.002228 87.849 -12.0211
119.864563 87.832 -11.9103
120.733154 87.815 -11.8026
121.608040 87.800 -11.6982
122.489258 87.788 -11.5967
123.376869 87.777 -11.5032
124.270905 87.767 -11.4243
125.171425 87.756 -11.3551
126.078468 87.744 -11.2935
126.992081 87.730 -11.2371
127.912323 87.716 -11.1839
128.839233 87.701 -11.1311
129.772842 87.683 -11.0765
130.713242 87.664 -11.0161
131.660431 87.644 -10.9434
132.614502 87.625 -10.8642
133.575485 87.609 -10.7823
134.543427 87.593 -10.6982
135.518387 87.576 -10.6152
136.500412 87.558 -10.5292
137.489548 87.540 -10.4357
138.485855 87.523 -10.3382
139.489380 87.508 -10.2389
140.500168 87.494 -10.1372
141.518295 87.478 -10.0336
142.543793 87.462 -9.9273
143.576721 87.449 -9.8150
144.617142 87.438 -9.7052
145.665100 87.430 -9.6058
146.720642 87.422 -9.5152
147.783844 87.413 -9.4370
148.854752 87.402 -9.3642
149.933411 87.389 -9.2922
151.019897 87.375 -9.2182
152.114243 87.359 -9.1378
153.216522 87.343 -9.0503
154.326797 87.327 -8.9532
155.445114 87.311 -8.8473
156.571533 87.295 -8.7314
157.706116 87.280 -8.6083
158.848923 87.268 -8.4776
160.000000 87.258 -8.3473
161.159424 87.252 -8.2253
162.327255 87.247 -8.1122
163.503540 87.241 -8.0133
164.688354 87.234 -7.9222
165.881760 87.226 -7.8356
167.083801 87.216 -7.7502
168.294571 87.206 -7.6620
169.514099 87.194 -7.5692
170.742462 87.181 -7.4681
171.979736 87.168 -7.3603
173.225967 87.157 -7.2452
174.481232 87.147 -7.1253
175.745605 87.138 -7.0027
177.019119 87.129 -6.8783
178.301880 87.122 -6.7521
179.593933 87.116 -6.6283
180.895340 87.112 -6.5113
182.206177 87.109 -6.4013
183.526520 87.105 -6.3013
184.856430 87.101 -6.2062
186.195984 87.095 -6.1124
187.545227 87.088 -6.0182
188.904266 87.081 -5.9206
190.273132 87.074 -5.8202
191.651932 87.066 -5.7170
193.040726 87.058 -5.6103
194.439575 87.051 -5.4996
195.848572 87.044 -5.3853
197.267761 87.037 -5.2666
198.697250 87.031 -5.1463
200.137085 87.027 -5.0265
201.587372 87.024 -4.9093
203.048157 87.021 -4.7986
204.519531 87.018 -4.6913
206.001556 87.014 -4.5863
207.494324 87.010 -4.4813
208.997925 87.005 -4.3736
210.512405 86.999 -4.2633
212.037857 86.994 -4.1501
213.574371 86.989 -4.0323
215.122025 86.983 -3.9080
216.680893 86.977 -3.7774
218.251053 86.973 -3.6387
219.832581 86.970 -3.4954
221.425583 86.969 -3.3497
223.030121 86.970 -3.2044
224.646286 86.973 -3.0619
226.274170 86.978 -2.9253
227.913849 86.984 -2.7989
229.565399 86.991 -2.6813
231.228928 86.998 -2.5725
232.904510 87.004 -2.4723
234.592224 87.010 -2.3809
236.292191 87.016 -2.2972
238.004456 87.021 -2.2212
239.729126 87.025 -2.1492
241.466309 87.027 -2.0782
243.216080 87.028 -2.0062
244.978516 87.028 -1.9306
246.753738 87.027 -1.8502
248.541809 87.025 -1.7634
250.342850 87.023 -1.6693
252.156937 87.022 -1.5655
253.984161 87.021 -1.4553
255.824646 87.022 -1.3408
257.678467 87.024 -1.2223
259.545685 87.026 -1.0992
261.426483 87.030 -0.9763
263.320862 87.038 -0.8569
265.229004 87.048 -0.7453
267.150970 87.059 -0.6491
269.086853 87.069 -0.5622
271.036774 87.076 -0.4816
273.000824 87.083 -0.4052
274.979095 87.091 -0.3302
276.971710 87.099 -0.2562
278.978760 87.105 -0.1833
281.000336 87.110 -0.1072
283.036591 87.115 -0.0216
285.087585 87.121 0.0667
287.153442 87.131 0.1546
289.234283 87.143 0.2378
291.330200 87.155 0.3113
293.441284 87.168 0.3748
295.567688 87.182 0.4269
297.709503 87.197 0.4659
299.866821 87.212 0.4891
302.039795 87.225 0.4990
304.228485 87.236 0.4948
306.433044 87.245 0.4830
308.653595 87.250 0.4692
310.890228 87.253 0.4560
313.143066 87.255 0.4486
315.412231 87.255 0.4460
317.697845 87.254 0.4486
320.000000 87.252 0.4580
322.318848 87.248 0.4758
324.654510 87.244 0.5019
327.007080 87.241 0.5377
329.376709 87.238 0.5799
331.763519 87.236 0.6260
334.167603 87.235 0.6748
336.589142 87.234 0.7244
339.028198 87.234 0.7749
341.484924 87.234 0.8257
343.959473 87.234 0.8769
346.451935 87.234 0.9281
348.962463 87.234 0.9799
351.491211 87.234 1.0323
354.038239 87.234 1.0858
356.603760 87.234 1.1410
359.187866 87.234 1.1978
361.790680 87.235 1.2571
364.412354 87.236 1.3178
367.053040 87.237 1.3804
369.712860 87.239 1.4418
372.391968 87.243 1.5003
375.090454 87.249 1.5529
377.808533 87.255 1.5959
380.546265 87.260 1.6299
383.303864 87.265 1.6534
386.081451 87.269 1.6680
388.879150 87.272 1.6734
391.697144 87.273 1.6730
394.535522 87.272 1.6691
397.394501 87.268 1.6640
400.274170 87.262 1.6599
403.174744 87.253 1.6600
406.096313 87.242 1.6669
409.039062 87.229 1.6839
412.003113 87.213 1.7144
414.988647 87.195 1.7608
417.995850 87.176 1.8262
421.024811 87.157 1.9117
424.075714 87.136 2.0197
427.148743 87.116 2.1496
430.244049 87.097 2.3023
433.361786 87.080 2.4754
436.502106 87.064 2.6677
439.665161 87.051 2.8763
442.851166 87.042 3.0992
446.060242 87.035 3.3333
449.292572 87.031 3.5747
452.548340 87.030 3.8242
455.827698 87.031 4.0824
459.130798 87.036 4.3451
462.457855 87.046 4.6104
465.809021 87.060 4.8732
469.184448 87.077 5.1288
472.584381 87.098 5.3743
476.008911 87.123 5.6059
479.458252 87.151 5.8213
482.932617 87.181 6.0171
486.432159 87.213 6.1925
489.957031 87.245 6.3444
493.507477 87.278 6.4766
497.083618 87.309 6.5893
500.685699 87.339 6.6897
504.313873 87.366 6.7845
507.968323 87.392 6.8757
511.649292 87.419 6.9689
515.356934 87.446 7.0597
519.091370 87.475 7.1457
522.852966 87.504 7.2267
526.641724 87.533 7.3020
530.458008 87.562 7.3708
534.301941 87.593 7.4341
538.173706 87.626 7.4858
542.073547 87.661 7.5191
546.001648 87.695 7.5380
549.958191 87.726 7.5431
553.943420 87.755 7.5380
557.957520 87.784 7.5269
562.000671 87.813 7.5091
566.073181 87.840 7.4834
570.175171 87.866 7.4561
574.306885 87.889 7.4340
578.468567 87.912 7.4141
582.660400 87.937 7.3976
586.882568 87.964 7.3781
591.135376 87.992 7.3481
595.419006 88.020 7.3111
599.733643 88.046 7.2705
604.079590 88.074 7.2192
608.456970 88.107 7.1527
612.866089 88.140 7.0663
617.307190 88.171 6.9514
621.780457 88.200 6.8155
626.286133 88.226 6.6627
630.824463 88.249 6.4946
635.395691 88.270 6.3131
640.000000 88.287 6.1207
644.637695 88.300 5.9184
649.309021 88.308 5.7117
654.014160 88.312 5.5061
658.753418 88.312 5.3027
663.527039 88.309 5.1043
668.335205 88.303 4.9116
673.178284 88.293 4.7254
678.056396 88.278 4.5486
682.969849 88.260 4.3810
687.918945 88.236 4.2325
692.903870 88.205 4.1095
697.924927 88.169 4.0212
702.982422 88.129 3.9768
708.076477 88.086 3.9829
713.207520 88.040 4.0486
718.375732 87.994 4.1764
723.581360 87.950 4.3755
728.824707 87.911 4.6350
734.106079 87.882 4.9515
739.425720 87.863 5.3116
744.783936 87.854 5.7057
750.180908 87.857 6.1195
755.617065 87.874 6.5424
761.092529 87.904 6.9535
766.607727 87.950 7.3314
772.162903 88.006 7.6679
777.758301 88.068 7.9484
783.394287 88.137 8.1713
789.071045 88.211 8.3298
794.789001 88.287 8.4248
800.548340 88.362 8.4511
806.349487 88.435 8.4202
812.192627 88.503 8.3389
818.078125 88.566 8.2165
824.006226 88.624 8.0618
829.977295 88.678 7.8837
835.991699 88.724 7.6923
842.049622 88.767 7.4927
848.151428 88.807 7.2948
854.297485 88.846 7.0947
860.488098 88.884 6.8930
866.723572 88.921 6.6868
873.004211 88.958 6.4745
879.330322 88.996 6.2528
885.702332 89.034 6.0186
892.120483 89.073 5.7689
898.585144 89.111 5.5003
905.096680 89.149 5.2111
911.655396 89.186 4.8996
918.261597 89.223 4.5633
924.915710 89.259 4.1997
931.618042 89.293 3.8075
938.368896 89.324 3.3847
945.168762 89.353 2.9308
952.017822 89.378 2.4439
958.916504 89.399 1.9251
965.865234 89.414 1.3733
972.864319 89.423 0.7922
979.914062 89.424 0.1812
987.014954 89.415 -0.4476
994.167236 89.395 -1.0854
1001.371399 89.364 -1.7227
1008.627747 89.324 -2.3501
1015.936646 89.273 -2.9595
1023.298584 89.212 -3.5430
1030.713867 89.141 -4.0913
1038.182739 89.062 -4.5930
1045.705933 88.975 -5.0472
1053.283447 88.884 -5.4492
1060.916016 88.788 -5.7976
1068.603882 88.688 -6.0881
1076.347412 88.585 -6.3241
1084.147095 88.484 -6.5060
1092.003296 88.382 -6.6396
1099.916382 88.282 -6.7304
1107.886841 88.182 -6.7809
1115.915039 88.085 -6.7934
1124.001343 87.989 -6.7741
1132.146362 87.897 -6.7291
1140.350342 87.806 -6.6613
1148.613770 87.717 -6.5754
1156.937134 87.628 -6.4725
1165.320801 87.541 -6.3554
1173.765137 87.453 -6.2236
1182.270752 87.365 -6.0810
1190.838013 87.273 -5.9177
1199.467285 87.177 -5.7284
1208.159180 87.078 -5.5030
1216.913940 86.977 -5.2309
1225.732178 86.873 -4.9083
1234.614380 86.769 -4.5298
1243.560913 86.665 -4.0898
1252.572266 86.561 -3.5789
1261.648926 86.461 -3.0025
1270.791382 86.370 -2.3562
1280.000000 86.288 -1.6588
1289.275391 86.219 -0.9229
1298.618042 86.161 -0.1622
1308.028320 86.114 0.6080
1317.506836 86.078 1.3797
1327.054077 86.052 2.1423
1336.670410 86.035 2.8891
1346.356567 86.025 3.6090
1356.112793 86.020 4.3055
1365.939697 86.017 4.9758
1375.837891 86.015 5.6273
1385.807739 86.015 6.2650
1395.849854 86.015 6.8935
1405.964844 86.016 7.5176
1416.152954 86.017 8.1417
1426.415039 86.019 8.7715
1436.751465 86.023 9.4075
1447.162720 86.029 10.0529
1457.649414 86.038 10.7054
1468.212158 86.051 11.3639
1478.851440 86.067 12.0274
1489.567871 86.086 12.6959
1500.361816 86.109 13.3654
1511.234131 86.137 14.0327
1522.185059 86.170 14.6960
1533.215454 86.205 15.3524
1544.325806 86.244 16.0021
1555.516602 86.286 16.6456
1566.788574 86.332 17.2793
1578.142090 86.382 17.9001
1589.578003 86.435 18.5075
1601.096680 86.488 19.0990
1612.698975 86.544 19.6776
1624.385254 86.601 20.2463
1636.156250 86.660 20.8026
1648.012451 86.721 21.3440
1659.954590 86.782 21.8731
1671.983398 86.842 22.3891
1684.099243 86.901 22.8999
1696.302856 86.958 23.4109
1708.594971 87.013 23.9286
1720.976196 87.066 24.4600
1733.447144 87.119 25.0096
1746.008423 87.172 25.5809
1758.660645 87.225 26.1835
1771.404663 87.277 26.8263
1784.240967 87.333 27.5141
1797.170288 87.394 28.2583
1810.193359 87.464 29.0478
1823.310791 87.548 29.8815
1836.523193 87.647 30.7396
1849.831421 87.763 31.6107
1863.236084 87.898 32.4672
1876.737793 88.055 33.2863
1890.337524 88.229 34.0419
1904.035645 88.418 34.7028
1917.833008 88.615 35.2620
1931.730469 88.817 35.6982
1945.728638 89.017 36.0228
1959.828125 89.211 36.2295
1974.029907 89.395 36.3506
1988.334473 89.563 36.4047
2002.742798 89.717 36.4279
2017.255493 89.859 36.4589
2031.873291 89.992 36.5097
2046.597168 90.123 36.6067
2061.427734 90.254 36.7463
2076.365479 90.390 36.9406
2091.411865 90.533 37.1690
2106.566895 90.692 37.4248
2121.832031 90.863 37.6770
2137.207764 91.051 37.8964
2152.694824 91.250 38.0704
2168.294189 91.455 38.1760
2184.006592 91.666 38.2150
2199.832764 91.881 38.1805
2215.773682 92.097 38.0756
2231.830078 92.314 37.8979
2248.002686 92.530 37.6571
2264.292725 92.743 37.3613
2280.700684 92.956 37.0136
2297.227539 93.171 36.6232
2313.874268 93.387 36.1799
2330.641602 93.607 35.6803
2347.530273 93.828 35.1126
2364.541504 94.052 34.4658
2381.676025 94.274 33.7335
2398.934570 94.494 32.9047
2416.318359 94.707 31.9824
2433.827881 94.912 30.9610
2451.464355 95.104 29.8558
2469.228760 95.280 28.6713
2487.121826 95.439 27.4334
2505.144531 95.578 26.1608
2523.297852 95.699 24.8788
2541.582764 95.804 23.6139
2560.000000 95.894 22.3814
2578.550781 95.971 21.2045
2597.236084 96.042 20.0850
2616.056641 96.109 19.0373
2635.013672 96.176 18.0471
2654.108154 96.248 17.1123
2673.340820 96.327 16.2099
2692.713135 96.415 15.3240
2712.225586 96.514 14.4302
2731.879395 96.622 13.5058
2751.675781 96.738 12.5297
2771.615479 96.861 11.4758
2791.699707 96.985 10.3363
2811.929688 97.108 9.0926
2832.305908 97.223 7.7505
2852.830078 97.328 6.3039
2873.502930 97.419 4.7699
2894.325439 97.491 3.1549
2915.298828 97.542 1.4857
2936.424316 97.569 -0.2218
2957.702881 97.570 -1.9286
2979.135742 97.542 -3.6034
3000.723633 97.487 -5.2062
3022.468262 97.407 -6.6933
3044.370117 97.308 -8.0431
3066.430908 97.195 -9.2216
3088.651611 97.074 -10.2249
3111.033203 96.949 -11.0310
3133.577148 96.832 -11.6614
3156.284180 96.731 -12.1122
3179.156006 96.653 -12.4377
3202.193359 96.610 -12.6716
3225.397949 96.599 -12.8720
3248.770508 96.623 -13.0924
3272.312500 96.676 -13.3805
3296.024902 96.758 -13.7953
3319.909180 96.858 -14.3570
3343.966797 96.965 -15.1125
3368.198486 97.070 -16.0402
3392.605713 97.161 -17.1490
3417.189941 97.235 -18.3930
3441.952393 97.284 -19.7469
3466.894287 97.308 -21.1566
3492.016846 97.301 -22.5727
3517.321289 97.270 -23.9557
3542.809326 97.219 -25.2511
3568.481934 97.154 -26.4547
3594.340576 97.084 -27.5341
3620.386719 97.016 -28.5195
3646.621582 96.961 -29.4124
3673.046387 96.920 -30.2670
3699.662842 96.902 -31.1240
3726.472168 96.899 -32.0267
3753.475586 96.911 -33.0257
3780.675049 96.929 -34.1397
3808.071289 96.949 -35.4074
3835.666016 96.961 -36.8189
3863.460938 96.956 -38.3936
3891.457275 96.927 -40.0827
3919.656250 96.862 -41.8632
3948.059814 96.762 -43.6766
3976.668945 96.622 -45.4766
4005.485596 96.444 -47.2038
4034.510986 96.224 -48.8000
4063.746582 95.968 -50.2158
4093.194336 95.680 -51.3877
4122.855469 95.370 -52.3002
4152.730957 95.044 -52.9111
4182.823730 94.714 -53.2371
4213.133789 94.389 -53.2670
4243.664062 94.080 -53.0446
4274.415527 93.799 -52.5924
4305.389648 93.548 -51.9644
4336.588379 93.337 -51.2082
4368.013184 93.163 -50.3661
4399.665527 93.027 -49.4906
4431.547363 92.922 -48.5994
4463.660156 92.846 -47.7294
4496.005371 92.792 -46.8752
4528.585449 92.756 -46.0465
4561.401367 92.738 -45.2338
4594.455078 92.737 -44.4278
4627.748535 92.757 -43.6378
4661.283203 92.800 -42.8614
4695.060547 92.870 -42.1245
4729.083008 92.967 -41.4384
4763.352051 93.094 -40.8445
4797.869141 93.254 -40.3732
4832.636719 93.440 -40.0690
4867.655762 93.650 -39.9830
4902.928711 93.871 -40.1277
4938.457520 94.092 -40.5389
4974.243652 94.307 -41.1973
5010.289062 94.506 -42.1083
5046.595703 94.683 -43.2329
5083.165527 94.830 -44.5552
5120.000000 94.944 -46.0107
5157.101562 95.016 -47.5470
5194.472168 95.053 -49.1094
5232.113281 95.058 -50.6337
5270.027344 95.036 -52.0949
5308.216309 94.991 -53.4460
5346.681641 94.931 -54.6882
5385.426270 94.866 -55.7959
5424.451172 94.801 -56.8033
5463.758789 94.748 -57.7238
5503.351562 94.703 -58.5958
5543.230957 94.670 -59.4542
5583.399414 94.646 -60.3227
5623.859375 94.631 -61.2348
5664.611816 94.620 -62.1962
5705.660156 94.607 -63.2295
5747.005859 94.589 -64.3173
5788.650879 94.559 -65.4565
5830.597656 94.518 -66.6239
5872.848633 94.464 -67.7994
5915.405762 94.397 -68.9710
5958.271484 94.321 -70.1212
6001.447266 94.235 -71.2473
6044.936523 94.143 -72.3395
6088.740234 94.046 -73.4017
6132.861816 93.944 -74.4329
6177.303223 93.840 -75.4380
6222.066406 93.732 -76.4222
6267.154297 93.622 -77.3842
6312.568359 93.507 -78.3254
6358.312012 93.388 -79.2425
6404.386719 93.264 -80.1323
6450.795898 93.137 -80.9956
6497.541016 93.007 -81.8316
6544.625000 92.875 -82.6420
6592.049805 92.739 -83.4276
6639.818359 92.601 -84.1901
6687.933594 92.461 -84.9320
6736.396973 92.318 -85.6514
6785.211426 92.170 -86.3526
6834.379883 92.015 -87.0187
6883.904785 91.850 -87.6418
6933.788574 91.677 -88.1983
6984.033691 91.494 -88.6676
7034.642578 91.306 -89.0335
7085.618652 91.114 -89.2726
7136.963867 90.925 -89.3858
7188.681152 90.741 -89.3605
7240.773438 90.570 -89.2130
7293.243164 90.416 -88.9448
7346.092773 90.287 -88.5880
7399.325684 90.187 -88.1603
7452.944336 90.120 -87.7073
7506.951172 90.092 -87.2659
7561.350098 90.099 -86.8798
7616.142578 90.140 -86.5899
7671.332031 90.215 -86.4413
7726.921875 90.323 -86.4792
7782.914551 90.455 -86.7440
7839.312500 90.606 -87.2849
7896.119629 90.765 -88.1208
7953.337891 90.923 -89.2863
8010.971191 91.069 -90.7832
8069.021973 91.196 -92.6362
8127.493164 91.291 -94.8097
8186.388672 91.337 -97.2972
8245.710938 91.330 -100.0350
8305.461914 91.265 -102.9837
8365.647461 91.134 -106.0635
8426.267578 90.927 -109.2176
8487.328125 90.641 -112.3358
8548.831055 90.269 -115.3294
8610.779297 89.815 -118.0753
8673.176758 89.278 -120.4648
8736.026367 88.661 -122.3653
8799.331055 87.960 -123.6603
8863.094727 87.182 -124.1925
8927.320312 86.322 -123.7858
8992.010742 85.419 -122.3783
9057.170898 84.493 -119.7989
9122.802734 83.604 -116.1996
9188.910156 82.792 -111.5848
9255.497070 82.125 -106.2316
9322.566406 81.679 -100.3172
9390.121094 81.469 -94.1498
9458.166016 81.558 -88.0009
9526.704102 81.886 -82.1595
9595.738281 82.442 -76.9547
9665.273438 83.148 -72.5379
9735.311523 83.934 -69.1808
9805.857422 84.760 -66.8498
9876.915039 85.564 -65.6460
9948.487305 86.331 -65.4316
10020.578125 87.026 -66.1498
10093.191406 87.648 -67.6549
10166.331055 88.185 -69.8276
10240.000000 88.632 -72.5305
10314.203125 88.980 -75.6316
10388.944336 89.234 -78.9966
10464.226562 89.394 -82.4807
10540.054688 89.467 -85.9833
10616.432617 89.454 -89.3821
10693.363281 89.366 -92.5976
10770.852539 89.207 -95.5210
10848.902344 88.992 -98.1229
10927.517578 88.736 -100.3323
11006.703125 88.451 -102.1681
11086.461914 88.150 -103.6136
11166.798828 87.846 -104.7059
11247.718750 87.548 -105.4617
11329.223633 87.266 -105.9253
11411.320312 87.010 -106.1326
11494.011719 86.784 -106.1265
11577.301758 86.593 -105.9448
11661.195312 86.443 -105.6380
11745.697266 86.339 -105.2489
11830.811523 86.282 -104.8382
11916.542969 86.276 -104.4601
12002.894531 86.315 -104.1772
12089.873047 86.400 -104.0538
12177.480469 86.519 -104.1388
12265.723633 86.667 -104.4958
12354.606445 86.829 -105.1456
12444.132812 86.995 -106.1370
12534.308594 87.150 -107.4490
12625.136719 87.281 -109.0973
12716.624023 87.378 -111.0202
12808.773438 87.429 -113.1864
12901.591797 87.431 -115.5194
12995.082031 87.378 -117.9540
13089.250000 87.272 -120.4236
13184.099609 87.113 -122.8561
13279.636719 86.903 -125.2022
13375.867188 86.645 -127.4007
13472.793945 86.342 -129.4152
13570.422852 85.999 -131.1992
13668.759766 85.621 -132.7218
13767.809570 85.212 -133.9463
13867.577148 84.778 -134.8428
13968.067383 84.321 -135.3761
14069.285156 83.853 -135.5253
14171.237305 83.377 -135.2570
14273.927734 82.908 -134.5737
14377.362305 82.458 -133.4500
14481.546875 82.044 -131.9378
14586.486328 81.685 -130.0503
14692.185547 81.396 -127.8793
14798.651367 81.198 -125.4862
14905.888672 81.096 -122.9777
15013.902344 81.105 -120.4386
15122.700195 81.221 -117.9974
15232.285156 81.455 -115.7757
15342.664062 81.782 -113.8793
15453.843750 82.188 -112.4377
15565.829102 82.650 -111.5016
15678.625000 83.147 -111.1576
15792.239258 83.660 -111.4248
15906.675781 84.171 -112.3617
16021.942383 84.658 -113.9368
16138.043945 85.101 -116.1672
16254.986328 85.488 -118.9642
16372.777344 85.802 -122.2773
16491.421875 86.042 -126.0083
16610.923828 86.204 -130.0738
16731.294922 86.284 -134.3775
16852.535156 86.277 -138.8282
16974.656250 86.186 -143.3258
17097.662109 86.006 -147.7600
17221.558594 85.748 -152.0684
17346.353516 85.420 -156.1698
17472.052734 85.023 -160.0106
17598.662109 84.556 -163.5229
17726.189453 84.032 -166.6689
17854.640625 83.459 -169.3850
17984.021484 82.846 -171.6814
18114.341797 82.207 -173.5446
18245.605469 81.547 -174.9850
18377.820312 80.869 -175.9979
18510.994141 80.189 -176.6155
18645.132812 79.523 -176.8627
18780.242188 78.870 -176.7575
18916.332031 78.235 -176.3195
19053.408203 77.626 -175.5691
19191.476562 77.052 -174.5082
19330.546875 76.520 -173.2115
19470.623047 76.043 -171.7435
19611.714844 75.611 -170.1394
19753.830078 75.215 -168.4405
19896.974609 74.868 -166.6937
