* Measurement data measured by REW V5.20.13
* Source: C:\Users\kurin\Desktop\Targets and Curves\Resolve\Img\Files\RAAL requisite CA-1a (Sealed Pads)_SPL.txt
* Format: Comma/Tab/Space delimited data
* Dated: Aug 15, 2023 12:17:48 AM
* REW Settings:
*  C-weighting compensation: Off
*  Target level: 75.0 dB
* Note: ; Measurement imported from C:\Users\kurin\Desktop\Targets and Curves\Resolve\Img\Files\RAAL requisite CA-1a (Sealed Pads)_SPL.txt Format: Comma/Tab/Space delimited data 623 values loaded, 5 Hz to 39,792 Hz log spaced 
* Measurement: RAAL requisite CA-1a (Sealed
* Smoothing: 1/48 octave
* Frequency Step: 1/96 octave
* Start Frequency: 5.000 Hz
*
* Freq(Hz) SPL(dB) Phase(degrees)
5.000000 93.416 10.4170
5.036232 93.420 10.4073
5.072727 93.425 10.3970
5.109486 93.430 10.3854
5.146511 93.436 10.3720
5.183805 93.443 10.3558
5.221369 93.451 10.3380
5.259205 93.459 10.3200
5.297316 93.467 10.3010
5.335702 93.476 10.2803
5.374367 93.486 10.2590
5.413311 93.495 10.2385
5.452538 93.504 10.2180
5.492050 93.513 10.1971
5.531847 93.522 10.1760
5.571934 93.531 10.1546
5.612310 93.540 10.1330
5.652979 93.549 10.1116
5.693943 93.558 10.0900
5.735204 93.567 10.0681
5.776763 93.577 10.0460
5.818624 93.586 10.0236
5.860788 93.595 10.0010
5.903258 93.604 9.9786
5.946035 93.613 9.9560
5.989123 93.622 9.9331
6.032523 93.631 9.9100
6.076237 93.640 9.8871
6.120268 93.649 9.8640
6.164618 93.659 9.8406
6.209289 93.668 9.8170
6.254284 93.677 9.7931
6.299605 93.686 9.7690
6.345255 93.695 9.7446
6.391235 93.704 9.7200
6.437549 93.713 9.6956
6.484198 93.722 9.6710
6.531185 93.731 9.6461
6.578513 93.740 9.6210
6.626183 93.749 9.5956
6.674199 93.758 9.5700
6.722563 93.768 9.5441
6.771278 93.777 9.5180
6.820345 93.786 9.4921
6.869768 93.795 9.4660
6.919549 93.804 9.4396
6.969691 93.813 9.4130
7.020196 93.822 9.3861
7.071068 93.831 9.3590
7.122308 93.840 9.3316
7.173919 93.849 9.3040
7.225904 93.858 9.2766
7.278266 93.868 9.2490
7.331007 93.877 9.2206
7.384131 93.886 9.1920
7.437639 93.895 9.1636
7.491535 93.904 9.1350
7.545822 93.913 9.1061
7.600502 93.922 9.0770
7.655579 93.931 9.0476
7.711054 93.940 9.0180
7.766932 93.950 8.9881
7.823214 93.959 8.9580
7.879904 93.968 8.9276
7.937005 93.977 8.8970
7.994520 93.986 8.8661
8.052452 93.995 8.8350
8.110803 94.004 8.8036
8.169578 94.013 8.7720
8.228777 94.022 8.7401
8.288406 94.031 8.7080
8.348468 94.040 8.6761
8.408964 94.050 8.6440
8.469899 94.059 8.6112
8.531276 94.068 8.5780
8.593097 94.077 8.5446
8.655366 94.086 8.5110
8.718086 94.095 8.4771
8.781260 94.104 8.4430
8.844893 94.113 8.4086
8.908987 94.122 8.3740
8.973545 94.132 8.3391
9.038571 94.141 8.3040
9.104069 94.150 8.2686
9.170040 94.159 8.2330
9.236490 94.168 8.1971
9.303422 94.177 8.1610
9.370838 94.186 8.1247
9.438744 94.195 8.0880
9.507140 94.204 8.0507
9.576033 94.213 8.0130
9.645425 94.222 7.9751
9.715320 94.232 7.9370
9.785721 94.241 7.8986
9.856632 94.250 7.8600
9.928058 94.259 7.8211
10.000000 94.268 7.7820
10.072464 94.277 7.7427
10.145453 94.286 7.7030
10.218971 94.295 7.6627
10.293022 94.304 7.6220
10.367610 94.313 7.5811
10.442738 94.323 7.5400
10.518411 94.332 7.4987
10.594631 94.341 7.4570
10.671404 94.350 7.4147
10.748734 94.359 7.3720
10.826623 94.368 7.3292
10.905077 94.377 7.2860
10.984100 94.386 7.2422
11.063695 94.395 7.1980
11.143867 94.404 7.1536
11.224621 94.414 7.1090
11.305959 94.423 7.0642
11.387886 94.432 7.0190
11.470407 94.441 6.9733
11.553527 94.450 6.9270
11.637249 94.459 6.8802
11.721577 94.468 6.8330
11.806517 94.477 6.7857
11.892071 94.486 6.7380
11.978246 94.495 6.6897
12.065045 94.505 6.6410
12.152473 94.514 6.5922
12.240536 94.523 6.5430
12.329235 94.532 6.4933
12.418578 94.541 6.4430
12.508568 94.550 6.3922
12.599211 94.559 6.3410
12.690510 94.568 6.2898
12.782471 94.577 6.2381
12.875097 94.586 6.1853
12.968395 94.596 6.1320
13.062370 94.605 6.0787
13.157025 94.614 6.0250
13.252366 94.623 5.9708
13.348398 94.632 5.9160
13.445127 94.641 5.8608
13.542556 94.650 5.8051
13.640691 94.659 5.7488
13.739536 94.668 5.6920
13.839099 94.677 5.6348
13.939383 94.687 5.5771
14.040393 94.696 5.5188
14.142136 94.705 5.4600
14.244616 94.714 5.4008
14.347837 94.723 5.3410
14.451808 94.732 5.2808
14.556532 94.741 5.2200
14.662014 94.750 5.1583
14.768262 94.759 5.0961
14.875278 94.768 5.0339
14.983070 94.778 4.9711
15.091644 94.787 4.9069
15.201005 94.796 4.8420
15.311157 94.805 4.7774
15.422109 94.814 4.7120
15.533863 94.823 4.6454
15.646428 94.832 4.5780
15.759809 94.841 4.5108
15.874010 94.850 4.4430
15.989040 94.859 4.3744
16.104904 94.868 4.3051
16.221605 94.877 4.2350
16.339155 94.887 4.1641
16.457554 94.896 4.0924
16.576813 94.905 4.0201
16.696936 94.914 3.9474
16.817928 94.923 3.8740
16.939798 94.932 3.7999
17.062551 94.941 3.7251
17.186193 94.950 3.6494
17.310732 94.959 3.5730
17.436172 94.968 3.4964
17.562521 94.978 3.4191
17.689787 94.987 3.3410
17.817974 94.996 3.2621
17.947090 95.005 3.1819
18.077143 95.014 3.1010
18.208138 95.023 3.0204
18.340080 95.032 2.9391
18.472980 95.041 2.8564
18.606844 95.050 2.7730
18.741676 95.059 2.6898
18.877487 95.069 2.6061
19.014280 95.078 2.5212
19.152065 95.087 2.4361
19.290850 95.096 2.3518
19.430639 95.105 2.2681
19.571442 95.114 2.1850
19.713264 95.124 2.1031
19.856115 95.133 2.0237
20.000000 95.143 1.9451
20.144928 95.154 1.8668
20.290907 95.167 1.7861
20.437943 95.181 1.6999
20.586044 95.196 1.6081
20.735220 95.211 1.5100
20.885475 95.227 1.4031
21.036821 95.244 1.2841
21.189262 95.261 1.1542
21.342808 95.276 1.0121
21.497467 95.290 0.8622
21.653246 95.302 0.7076
21.810154 95.313 0.5502
21.968201 95.323 0.3930
22.127390 95.332 0.2362
22.287735 95.340 0.0813
22.449242 95.348 -0.0729
22.611917 95.357 -0.2265
22.775772 95.366 -0.3818
22.940815 95.375 -0.5411
23.107054 95.383 -0.7048
23.274498 95.392 -0.8741
23.443153 95.400 -1.0488
23.613033 95.408 -1.2298
23.784142 95.414 -1.4148
23.956491 95.419 -1.6027
24.130091 95.422 -1.7908
24.304947 95.424 -1.9760
24.481071 95.425 -2.1588
24.658470 95.426 -2.3386
24.837156 95.426 -2.5158
25.017136 95.426 -2.6902
25.198421 95.426 -2.8628
25.381020 95.426 -3.0345
25.564941 95.426 -3.2058
25.750195 95.426 -3.3775
25.936790 95.426 -3.5498
26.124741 95.426 -3.7228
26.314051 95.426 -3.8977
26.504732 95.426 -4.0756
26.696796 95.426 -4.2568
26.890253 95.426 -4.4422
27.085112 95.425 -4.6318
27.281382 95.424 -4.8259
27.479073 95.422 -5.0247
27.678198 95.420 -5.2296
27.878765 95.416 -5.4377
28.080786 95.410 -5.6475
28.284271 95.403 -5.8567
28.489231 95.394 -6.0622
28.695675 95.384 -6.2647
28.903616 95.374 -6.4650
29.113064 95.362 -6.6607
29.324028 95.348 -6.8503
29.536524 95.334 -7.0328
29.750557 95.320 -7.2054
29.966141 95.307 -7.3728
30.183289 95.295 -7.5379
30.402010 95.284 -7.7028
30.622314 95.272 -7.8715
30.844217 95.260 -8.0418
31.067726 95.247 -8.2125
31.292856 95.234 -8.3837
31.519617 95.221 -8.5555
31.748020 95.208 -8.7278
31.978081 95.193 -8.9020
32.209808 95.177 -9.0738
32.443211 95.159 -9.2386
32.678310 95.141 -9.3988
32.915108 95.124 -9.5547
33.153625 95.107 -9.7078
33.393871 95.089 -9.8603
33.635857 95.071 -10.0108
33.879597 95.053 -10.1578
34.125103 95.035 -10.3038
34.372387 95.017 -10.4512
34.621464 94.999 -10.5978
34.872345 94.979 -10.7431
35.125042 94.959 -10.8848
35.379574 94.938 -11.0200
35.635948 94.917 -11.1498
35.894180 94.896 -11.2740
36.154285 94.875 -11.3938
36.416275 94.855 -11.5104
36.680161 94.835 -11.6248
36.945961 94.815 -11.7383
37.213688 94.796 -11.8518
37.483353 94.778 -11.9663
37.754974 94.760 -12.0828
38.028561 94.742 -12.2033
38.304131 94.723 -12.3258
38.581699 94.704 -12.4494
38.861279 94.684 -12.5738
39.142883 94.664 -12.6983
39.426529 94.643 -12.8228
39.712231 94.621 -12.9479
40.000000 94.599 -13.0718
40.289856 94.576 -13.1930
40.581814 94.553 -13.3108
40.875885 94.528 -13.4241
41.172089 94.503 -13.5328
41.470440 94.479 -13.6353
41.770950 94.455 -13.7348
42.073643 94.432 -13.8343
42.378525 94.408 -13.9329
42.685616 94.384 -14.0309
42.994934 94.359 -14.1279
43.306492 94.335 -14.2229
43.620308 94.311 -14.3179
43.936401 94.287 -14.4147
44.254780 94.263 -14.5128
44.575470 94.238 -14.6138
44.898483 94.211 -14.7128
45.223835 94.182 -14.8052
45.551544 94.153 -14.8919
45.881630 94.125 -14.9715
46.214108 94.097 -15.0469
46.548996 94.069 -15.1213
46.886307 94.040 -15.1919
47.226067 94.010 -15.2566
47.568283 93.981 -15.3169
47.912983 93.954 -15.3725
48.260181 93.927 -15.4259
48.609894 93.899 -15.4806
48.962143 93.871 -15.5339
49.316940 93.843 -15.5834
49.674313 93.816 -15.6319
50.034271 93.790 -15.6819
50.396843 93.764 -15.7329
50.762039 93.737 -15.7855
51.129883 93.710 -15.8399
51.500389 93.684 -15.8963
51.873581 93.657 -15.9549
52.249481 93.629 -16.0175
52.628101 93.599 -16.0799
53.009464 93.568 -16.1393
53.393593 93.536 -16.1939
53.780506 93.503 -16.2409
54.170223 93.469 -16.2809
54.562763 93.435 -16.3136
54.958145 93.402 -16.3400
55.356396 93.369 -16.3607
55.757530 93.336 -16.3760
56.161572 93.303 -16.3853
56.568542 93.270 -16.3920
56.978462 93.239 -16.3982
57.391350 93.209 -16.4070
57.807232 93.179 -16.4234
58.226128 93.149 -16.4430
58.648056 93.116 -16.4634
59.073048 93.082 -16.4830
59.501114 93.048 -16.4993
59.932281 93.013 -16.5120
60.366577 92.976 -16.5211
60.804020 92.937 -16.5230
61.244629 92.898 -16.5143
61.688435 92.858 -16.4950
62.135452 92.818 -16.4634
62.585712 92.778 -16.4221
63.039234 92.740 -16.3721
63.496040 92.702 -16.3171
63.956161 92.666 -16.2611
64.419617 92.630 -16.2041
64.886421 92.594 -16.1478
65.356621 92.557 -16.0911
65.830215 92.521 -16.0336
66.307251 92.484 -15.9751
66.787743 92.446 -15.9167
67.271713 92.406 -15.8541
67.759193 92.365 -15.7836
68.250206 92.322 -15.7042
68.744774 92.279 -15.6132
69.242928 92.235 -15.5112
69.744690 92.191 -15.3979
70.250084 92.147 -15.2733
70.759148 92.103 -15.1370
71.271896 92.058 -14.9893
71.788361 92.014 -14.8307
72.308571 91.970 -14.6603
72.832550 91.926 -14.4777
73.360321 91.881 -14.2824
73.891922 91.837 -14.0743
74.427376 91.793 -13.8524
74.966705 91.750 -13.6155
75.509949 91.707 -13.3645
76.057121 91.666 -13.0998
76.608261 91.626 -12.8226
77.163399 91.587 -12.5344
77.722557 91.548 -12.2336
78.285767 91.511 -11.9188
78.853058 91.474 -11.5907
79.424461 91.439 -11.2501
80.000000 91.404 -10.8947
80.579712 91.369 -10.5229
81.163628 91.336 -10.1328
81.751770 91.304 -9.7209
82.344177 91.275 -9.2899
82.940880 91.249 -8.8421
83.541901 91.224 -8.3749
84.147285 91.200 -7.8878
84.757050 91.178 -7.3770
85.371231 91.160 -6.8379
85.989868 91.146 -6.2722
86.612984 91.136 -5.6805
87.240616 91.131 -5.0613
87.872803 91.132 -4.4120
88.509560 91.140 -3.7364
89.150940 91.157 -3.0339
89.796967 91.185 -2.3155
90.447670 91.225 -1.5886
91.103088 91.278 -0.8635
91.763260 91.343 -0.1486
92.428215 91.422 0.5426
93.097992 91.515 1.1978
93.772614 91.620 1.8048
94.452133 91.736 2.3484
95.136566 91.862 2.8251
95.825966 91.994 3.2285
96.520363 92.134 3.5524
97.219788 92.280 3.7898
97.924286 92.431 3.9358
98.633881 92.583 3.9815
99.348625 92.735 3.9312
100.068542 92.883 3.7848
100.793686 93.028 3.5467
101.524078 93.167 3.2186
102.259766 93.299 2.8081
103.000778 93.421 2.3188
103.747162 93.533 1.7641
104.498962 93.632 1.1556
105.256203 93.721 0.5023
106.018929 93.799 -0.1857
106.787186 93.866 -0.9006
107.561012 93.920 -1.6339
108.340446 93.963 -2.3778
109.125526 93.996 -3.1225
109.916290 94.020 -3.8656
110.712791 94.035 -4.6035
111.515060 94.040 -5.3305
112.323143 94.036 -6.0415
113.137085 94.023 -6.7316
113.956924 94.003 -7.3948
114.782700 93.975 -8.0284
115.614464 93.941 -8.6286
116.452255 93.901 -9.1930
117.296112 93.857 -9.7168
118.146095 93.809 -10.2030
119.002228 93.760 -10.6520
119.864563 93.710 -11.0669
120.733154 93.658 -11.4502
121.608040 93.605 -11.8043
122.489258 93.553 -12.1317
123.376869 93.500 -12.4353
124.270905 93.448 -12.7182
125.171425 93.395 -12.9815
126.078468 93.342 -13.2278
126.992081 93.289 -13.4565
127.912323 93.236 -13.6679
128.839233 93.182 -13.8616
129.772842 93.128 -14.0372
130.713242 93.074 -14.1957
131.660431 93.021 -14.3378
132.614502 92.969 -14.4647
133.575485 92.917 -14.5771
134.543427 92.865 -14.6768
135.518387 92.816 -14.7658
136.500412 92.767 -14.8449
137.489548 92.718 -14.9155
138.485855 92.669 -14.9779
139.489380 92.622 -15.0329
140.500168 92.575 -15.0799
141.518295 92.527 -15.1184
142.543793 92.480 -15.1479
143.576721 92.434 -15.1670
144.617142 92.388 -15.1780
145.665100 92.344 -15.1826
146.720642 92.300 -15.1820
147.783844 92.257 -15.1779
148.854752 92.215 -15.1700
149.933411 92.173 -15.1581
151.019897 92.131 -15.1440
152.114243 92.091 -15.1305
153.216522 92.050 -15.1150
154.326797 92.008 -15.0967
155.445114 91.965 -15.0741
156.571533 91.923 -15.0453
157.706116 91.880 -15.0101
158.848923 91.837 -14.9678
160.000000 91.793 -14.9181
161.159424 91.749 -14.8601
162.327255 91.706 -14.7952
163.503540 91.663 -14.7244
164.688354 91.621 -14.6482
165.881760 91.579 -14.5673
167.083801 91.536 -14.4812
168.294571 91.494 -14.3904
169.514099 91.451 -14.2932
170.742462 91.408 -14.1879
171.979736 91.364 -14.0763
173.225967 91.322 -13.9600
174.481232 91.279 -13.8383
175.745605 91.235 -13.7119
177.019119 91.191 -13.5783
178.301880 91.146 -13.4351
179.593933 91.100 -13.2834
180.895340 91.055 -13.1250
182.206177 91.008 -12.9554
183.526520 90.958 -12.7721
184.856430 90.906 -12.5705
186.195984 90.854 -12.3443
187.545227 90.802 -12.0956
188.904266 90.750 -11.8267
190.273132 90.696 -11.5308
191.651932 90.641 -11.2023
193.040726 90.585 -10.8391
194.439575 90.532 -10.4378
195.848572 90.480 -9.9953
197.267761 90.428 -9.5102
198.697250 90.379 -8.9734
200.137085 90.333 -8.3730
201.587372 90.293 -7.7156
203.048157 90.265 -7.0000
204.519531 90.249 -6.2383
206.001556 90.247 -5.4358
207.494324 90.263 -4.6120
208.997925 90.299 -3.7778
210.512405 90.357 -2.9649
212.037857 90.438 -2.2002
213.574371 90.538 -1.5085
215.122025 90.655 -0.9193
216.680893 90.786 -0.4451
218.251053 90.925 -0.1081
219.832581 91.068 0.0916
221.425583 91.209 0.1413
223.030121 91.345 0.0564
224.646286 91.470 -0.1597
226.274170 91.582 -0.4830
227.913849 91.677 -0.8966
229.565399 91.756 -1.3767
231.228928 91.818 -1.9003
232.904510 91.863 -2.4493
234.592224 91.892 -3.0022
236.292191 91.906 -3.5466
238.004456 91.906 -4.0640
239.729126 91.896 -4.5507
241.466309 91.878 -4.9969
243.216080 91.852 -5.4030
244.978516 91.820 -5.7659
246.753738 91.782 -6.0861
248.541809 91.742 -6.3632
250.342850 91.698 -6.5974
252.156937 91.652 -6.7881
253.984161 91.604 -6.9376
255.824646 91.557 -7.0461
257.678467 91.510 -7.1199
259.545685 91.466 -7.1649
261.426483 91.423 -7.1820
263.320862 91.380 -7.1730
265.229004 91.339 -7.1411
267.150970 91.302 -7.0881
269.086853 91.267 -7.0202
271.036774 91.235 -6.9455
273.000824 91.205 -6.8603
274.979095 91.174 -6.7632
276.971710 91.144 -6.6543
278.978760 91.118 -6.5314
281.000336 91.094 -6.3994
283.036591 91.072 -6.2622
285.087585 91.053 -6.1204
287.153442 91.036 -5.9745
289.234283 91.022 -5.8294
291.330200 91.012 -5.6886
293.441284 91.004 -5.5563
295.567688 90.998 -5.4376
297.709503 90.994 -5.3333
299.866821 90.990 -5.2468
302.039795 90.986 -5.1752
304.228485 90.980 -5.1178
306.433044 90.972 -5.0701
308.653595 90.962 -5.0284
310.890228 90.950 -4.9901
313.143066 90.936 -4.9525
315.412231 90.919 -4.9121
317.697845 90.900 -4.8646
320.000000 90.879 -4.8092
322.318848 90.857 -4.7438
324.654510 90.833 -4.6673
327.007080 90.808 -4.5779
329.376709 90.781 -4.4743
331.763519 90.754 -4.3545
334.167603 90.727 -4.2195
336.589142 90.700 -4.0712
339.028198 90.671 -3.9045
341.484924 90.640 -3.7153
343.959473 90.609 -3.5016
346.451935 90.580 -3.2598
348.962463 90.553 -2.9908
351.491211 90.527 -2.6961
354.038239 90.502 -2.3700
356.603760 90.479 -2.0054
359.187866 90.461 -1.6083
361.790680 90.452 -1.1781
364.412354 90.452 -0.7273
367.053040 90.462 -0.2635
369.712860 90.482 0.1996
372.391968 90.515 0.6527
375.090454 90.560 1.0748
377.808533 90.618 1.4449
380.546265 90.684 1.7542
383.303864 90.754 1.9866
386.081451 90.827 2.1437
388.879150 90.900 2.2193
391.697144 90.971 2.2201
394.535522 91.035 2.1443
397.394501 91.091 2.0115
400.274170 91.135 1.8360
403.174744 91.170 1.6327
406.096313 91.195 1.4179
409.039062 91.211 1.2007
412.003113 91.218 0.9942
414.988647 91.218 0.8026
417.995850 91.214 0.6345
421.024811 91.205 0.4894
424.075714 91.192 0.3695
427.148743 91.176 0.2753
430.244049 91.159 0.2085
433.361786 91.140 0.1671
436.502106 91.122 0.1496
439.665161 91.103 0.1549
442.851166 91.084 0.1824
446.060242 91.066 0.2298
449.292572 91.050 0.2965
452.548340 91.036 0.3777
455.827698 91.024 0.4695
459.130798 91.014 0.5697
462.457855 91.006 0.6758
465.809021 91.000 0.7847
469.184448 90.997 0.8928
472.584381 90.995 0.9987
476.008911 90.994 1.0991
479.458252 90.993 1.1957
482.932617 90.993 1.2893
486.432159 90.993 1.3797
489.957031 90.993 1.4671
493.507477 90.993 1.5517
497.083618 90.993 1.6339
500.685699 90.993 1.7137
504.313873 90.992 1.7915
507.968323 90.991 1.8678
511.649292 90.989 1.9421
515.356934 90.986 2.0177
519.091370 90.981 2.0961
522.852966 90.974 2.1817
526.641724 90.966 2.2797
530.458008 90.957 2.3896
534.301941 90.949 2.5122
538.173706 90.940 2.6485
542.073547 90.931 2.7998
546.001648 90.923 2.9664
549.958191 90.916 3.1500
553.943420 90.911 3.3483
557.957520 90.908 3.5598
562.000671 90.908 3.7842
566.073181 90.910 4.0212
570.175171 90.915 4.2692
574.306885 90.924 4.5293
578.468567 90.939 4.7931
582.660400 90.960 5.0554
586.882568 90.987 5.3071
591.135376 91.019 5.5401
595.419006 91.057 5.7473
599.733643 91.099 5.9205
604.079590 91.144 6.0556
608.456970 91.190 6.1447
612.866089 91.236 6.1919
617.307190 91.278 6.1948
621.780457 91.316 6.1651
626.286133 91.348 6.1111
630.824463 91.374 6.0412
635.395691 91.395 5.9646
640.000000 91.411 5.8873
644.637695 91.421 5.8170
649.309021 91.428 5.7572
654.014160 91.432 5.7142
658.753418 91.435 5.6861
663.527039 91.436 5.6731
668.335205 91.436 5.6740
673.178284 91.436 5.6877
678.056396 91.436 5.7129
682.969849 91.436 5.7482
687.918945 91.436 5.7928
692.903870 91.436 5.8453
697.924927 91.436 5.9058
702.982422 91.436 5.9738
708.076477 91.436 6.0497
713.207520 91.436 6.1335
718.375732 91.436 6.2257
723.581360 91.436 6.3262
728.824707 91.436 6.4366
734.106079 91.436 6.5577
739.425720 91.436 6.6905
744.783936 91.437 6.8358
750.180908 91.438 6.9944
755.617065 91.440 7.1677
761.092529 91.443 7.3553
766.607727 91.448 7.5581
772.162903 91.456 7.7742
777.758301 91.466 8.0012
783.394287 91.478 8.2411
789.071045 91.492 8.4958
794.789001 91.510 8.7630
800.548340 91.533 9.0428
806.349487 91.561 9.3300
812.192627 91.594 9.6211
818.078125 91.634 9.9110
824.006226 91.680 10.1972
829.977295 91.734 10.4671
835.991699 91.797 10.7111
842.049622 91.868 10.9173
848.151428 91.944 11.0707
854.297485 92.023 11.1707
860.488098 92.102 11.2105
866.723572 92.181 11.1942
873.004211 92.256 11.1202
879.330322 92.327 10.9995
885.702332 92.390 10.8378
892.120483 92.447 10.6497
898.585144 92.495 10.4491
905.096680 92.536 10.2438
911.655396 92.572 10.0455
918.261597 92.603 9.8567
924.915710 92.631 9.6847
931.618042 92.657 9.5265
938.368896 92.683 9.3834
945.168762 92.709 9.2505
952.017822 92.734 9.1239
958.916504 92.760 9.0025
965.865234 92.786 8.8847
972.864319 92.812 8.7674
979.914062 92.839 8.6463
987.014954 92.865 8.5235
994.167236 92.889 8.3996
1001.371399 92.912 8.2754
1008.627747 92.936 8.1507
1015.936646 92.958 8.0285
1023.298584 92.977 7.9111
1030.713867 92.995 7.8013
1038.182739 93.013 7.7032
1045.705933 93.032 7.6154
1053.283447 93.050 7.5371
1060.916016 93.069 7.4713
1068.603882 93.087 7.4214
1076.347412 93.108 7.3851
1084.147095 93.132 7.3628
1092.003296 93.160 7.3490
1099.916382 93.192 7.3411
1107.886841 93.230 7.3311
1115.915039 93.274 7.3138
1124.001343 93.324 7.2782
1132.146362 93.380 7.2141
1140.350342 93.441 7.1135
1148.613770 93.506 6.9658
1156.937134 93.573 6.7679
1165.320801 93.639 6.5112
1173.765137 93.704 6.2025
1182.270752 93.763 5.8431
1190.838013 93.816 5.4417
1199.467285 93.863 5.0038
1208.159180 93.903 4.5409
1216.913940 93.933 4.0633
1225.732178 93.957 3.5798
1234.614380 93.974 3.1025
1243.560913 93.987 2.6308
1252.572266 93.996 2.1686
1261.648926 94.001 1.7138
1270.791382 94.004 1.2667
1280.000000 94.004 0.8237
1289.275391 94.003 0.3824
1298.618042 94.000 -0.0602
1308.028320 93.994 -0.5082
1317.506836 93.985 -0.9591
1327.054077 93.971 -1.4133
1336.670410 93.953 -1.8652
1346.356567 93.929 -2.3115
1356.112793 93.900 -2.7464
1365.939697 93.865 -3.1659
1375.837891 93.825 -3.5624
1385.807739 93.780 -3.9283
1395.849854 93.730 -4.2598
1405.964844 93.678 -4.5488
1416.152954 93.626 -4.8001
1426.415039 93.576 -5.0132
1436.751465 93.527 -5.1963
1447.162720 93.482 -5.3545
1457.649414 93.440 -5.4974
1468.212158 93.403 -5.6325
1478.851440 93.370 -5.7714
1489.567871 93.342 -5.9277
1500.361816 93.314 -6.1033
1511.234131 93.285 -6.3078
1522.185059 93.253 -6.5320
1533.215454 93.216 -6.7732
1544.325806 93.172 -7.0209
1555.516602 93.122 -7.2680
1566.788574 93.063 -7.5011
1578.142090 92.995 -7.7076
1589.578003 92.920 -7.8774
1601.096680 92.840 -7.9953
1612.698975 92.755 -8.0628
1624.385254 92.670 -8.0762
1636.156250 92.583 -8.0363
1648.012451 92.496 -7.9424
1659.954590 92.409 -7.7956
1671.983398 92.325 -7.5954
1684.099243 92.244 -7.3461
1696.302856 92.168 -7.0519
1708.594971 92.095 -6.7126
1720.976196 92.026 -6.3285
1733.447144 91.961 -5.9029
1746.008423 91.905 -5.4368
1758.660645 91.856 -4.9381
1771.404663 91.815 -4.4141
1784.240967 91.782 -3.8683
1797.170288 91.758 -3.3046
1810.193359 91.742 -2.7293
1823.310791 91.736 -2.1476
1836.523193 91.740 -1.5673
1849.831421 91.753 -0.9948
1863.236084 91.776 -0.4394
1876.737793 91.809 0.0902
1890.337524 91.851 0.5849
1904.035645 91.900 1.0333
1917.833008 91.955 1.4335
1931.730469 92.013 1.7802
1945.728638 92.075 2.0729
1959.828125 92.138 2.3079
1974.029907 92.200 2.4893
1988.334473 92.259 2.6156
2002.742798 92.314 2.6997
2017.255493 92.362 2.7523
2031.873291 92.405 2.7799
2046.597168 92.443 2.7912
2061.427734 92.477 2.7910
2076.365479 92.505 2.7847
2091.411865 92.528 2.7790
2106.566895 92.546 2.7818
2121.832031 92.560 2.7959
2137.207764 92.570 2.8252
2152.694824 92.578 2.8738
2168.294189 92.583 2.9466
2184.006592 92.586 3.0455
2199.832764 92.588 3.1741
2215.773682 92.590 3.3323
2231.830078 92.593 3.5220
2248.002686 92.599 3.7410
2264.292725 92.607 3.9903
2280.700684 92.620 4.2628
2297.227539 92.638 4.5536
2313.874268 92.662 4.8567
2330.641602 92.691 5.1667
2347.530273 92.726 5.4777
2364.541504 92.767 5.7835
2381.676025 92.814 6.0797
2398.934570 92.864 6.3597
2416.318359 92.918 6.6229
2433.827881 92.975 6.8665
2451.464355 93.035 7.0901
2469.228760 93.096 7.2916
2487.121826 93.159 7.4733
2505.144531 93.222 7.6361
2523.297852 93.285 7.7814
2541.582764 93.349 7.9096
2560.000000 93.412 8.0235
2578.550781 93.473 8.1248
2597.236084 93.533 8.2176
2616.056641 93.592 8.3057
2635.013672 93.651 8.3916
2654.108154 93.707 8.4771
2673.340820 93.763 8.5686
2692.713135 93.817 8.6739
2712.225586 93.872 8.7904
2731.879395 93.929 8.9184
2751.675781 93.989 9.0573
2771.615479 94.049 9.2065
2791.699707 94.111 9.3673
2811.929688 94.177 9.5425
2832.305908 94.247 9.7271
2852.830078 94.322 9.9186
2873.502930 94.402 10.1122
2894.325439 94.488 10.3033
2915.298828 94.580 10.4882
2936.424316 94.677 10.6635
2957.702881 94.781 10.8224
2979.135742 94.890 10.9584
3000.723633 95.005 11.0666
3022.468262 95.126 11.1402
3044.370117 95.249 11.1779
3066.430908 95.375 11.1751
3088.651611 95.502 11.1353
3111.033203 95.630 11.0594
3133.577148 95.757 10.9506
3156.284180 95.885 10.8112
3179.156006 96.013 10.6439
3202.193359 96.141 10.4515
3225.397949 96.268 10.2351
3248.770508 96.396 9.9974
3272.312500 96.525 9.7352
3296.024902 96.656 9.4475
3319.909180 96.787 9.1305
3343.966797 96.919 8.7797
3368.198486 97.049 8.3969
3392.605713 97.179 7.9822
3417.189941 97.306 7.5371
3441.952393 97.433 7.0615
3466.894287 97.556 6.5603
3492.016846 97.676 6.0363
3517.321289 97.791 5.4955
3542.809326 97.905 4.9456
3568.481934 98.016 4.3846
3594.340576 98.127 3.8136
3620.386719 98.237 3.2318
3646.621582 98.346 2.6385
3673.046387 98.454 2.0339
3699.662842 98.561 1.4188
3726.472168 98.668 0.7899
3753.475586 98.775 0.1442
3780.675049 98.882 -0.5180
3808.071289 98.985 -1.1980
3835.666016 99.088 -1.8927
3863.460938 99.188 -2.5988
3891.457275 99.287 -3.3176
3919.656250 99.384 -4.0497
3948.059814 99.480 -4.7925
3976.668945 99.572 -5.5462
4005.485596 99.662 -6.3033
4034.510986 99.748 -7.0582
4063.746582 99.832 -7.8065
4093.194336 99.914 -8.5424
4122.855469 99.996 -9.2635
4152.730957 100.077 -9.9637
4182.823730 100.162 -10.6478
4213.133789 100.252 -11.3162
4243.664062 100.349 -11.9769
4274.415527 100.450 -12.6344
4305.389648 100.559 -13.2997
4336.588379 100.678 -13.9800
4368.013184 100.805 -14.6905
4399.665527 100.941 -15.4476
4431.547363 101.083 -16.2549
4463.660156 101.229 -17.1214
4496.005371 101.378 -18.0482
4528.585449 101.531 -19.0388
4561.401367 101.685 -20.0958
4594.455078 101.841 -21.2227
4627.748535 101.997 -22.4200
4661.283203 102.153 -23.6882
4695.060547 102.309 -25.0312
4729.083008 102.464 -26.4523
4763.352051 102.617 -27.9547
4797.869141 102.766 -29.5424
4832.636719 102.911 -31.2164
4867.655762 103.051 -32.9784
4902.928711 103.184 -34.8297
4938.457520 103.309 -36.7740
4974.243652 103.422 -38.8061
5010.289062 103.524 -40.9236
5046.595703 103.613 -43.1218
5083.165527 103.686 -45.3976
5120.000000 103.744 -47.7434
5157.101562 103.782 -50.1547
5194.472168 103.801 -52.6188
5232.113281 103.799 -55.1280
5270.027344 103.773 -57.6632
5308.216309 103.722 -60.2132
5346.681641 103.643 -62.7477
5385.426270 103.536 -65.2417
5424.451172 103.403 -67.6674
5463.758789 103.243 -69.9965
5503.351562 103.060 -72.2055
5543.230957 102.854 -74.2641
5583.399414 102.631 -76.1641
5623.859375 102.398 -77.8830
5664.611816 102.159 -79.4338
5705.660156 101.921 -80.8174
5747.005859 101.686 -82.0490
5788.650879 101.458 -83.1367
5830.597656 101.240 -84.1023
5872.848633 101.038 -84.9642
5915.405762 100.851 -85.7412
5958.271484 100.679 -86.4557
6001.447266 100.521 -87.1157
6044.936523 100.377 -87.7315
6088.740234 100.249 -88.3181
6132.861816 100.140 -88.8881
6177.303223 100.047 -89.4591
6222.066406 99.970 -90.0487
6267.154297 99.909 -90.6698
6312.568359 99.865 -91.3342
6358.312012 99.836 -92.0622
6404.386719 99.822 -92.8727
6450.795898 99.820 -93.7810
6497.541016 99.827 -94.8072
6544.625000 99.839 -95.9549
6592.049805 99.853 -97.2338
6639.818359 99.866 -98.6464
6687.933594 99.876 -100.1989
6736.396973 99.879 -101.8899
6785.211426 99.871 -103.7273
6834.379883 99.846 -105.6896
6883.904785 99.800 -107.7653
6933.788574 99.731 -109.9316
6984.033691 99.639 -112.1724
7034.642578 99.521 -114.4575
7085.618652 99.371 -116.7622
7136.963867 99.192 -119.0536
7188.681152 98.984 -121.2967
7240.773438 98.750 -123.4723
7293.243164 98.492 -125.5537
7346.092773 98.213 -127.5284
7399.325684 97.915 -129.3731
7452.944336 97.604 -131.0937
7506.951172 97.286 -132.6816
7561.350098 96.964 -134.1567
7616.142578 96.641 -135.5277
7671.332031 96.320 -136.8195
7726.921875 96.005 -138.0499
7782.914551 95.696 -139.2489
7839.312500 95.394 -140.4480
7896.119629 95.094 -141.6615
7953.337891 94.792 -142.9123
8010.971191 94.486 -144.2050
8069.021973 94.173 -145.5591
8127.493164 93.845 -146.9535
8186.388672 93.491 -148.3862
8245.710938 93.110 -149.8195
8305.461914 92.699 -151.2362
8365.647461 92.249 -152.5732
8426.267578 91.754 -153.7914
8487.328125 91.211 -154.8004
8548.831055 90.618 -155.5240
8610.779297 89.978 -155.8793
8673.176758 89.293 -155.7896
8736.026367 88.567 -155.1591
8799.331055 87.794 -153.8813
8863.094727 87.000 -151.9104
8927.320312 86.199 -149.1396
8992.010742 85.432 -145.6463
9057.170898 84.732 -141.4214
9122.802734 84.137 -136.6197
9188.910156 83.681 -131.3137
9255.497070 83.402 -125.7435
9322.566406 83.365 -120.0957
9390.121094 83.526 -114.6062
9458.166016 83.878 -109.5306
9526.704102 84.375 -104.9982
9595.738281 84.980 -101.2074
9665.273438 85.651 -98.2046
9735.311523 86.346 -96.1249
9805.857422 87.036 -94.8994
9876.915039 87.682 -94.5469
9948.487305 88.282 -94.9370
10020.578125 88.819 -95.9796
10093.191406 89.294 -97.5691
10166.331055 89.701 -99.6008
10240.000000 90.040 -101.9827
10314.203125 90.309 -104.6105
10388.944336 90.513 -107.4164
10464.226562 90.657 -110.3083
10540.054688 90.744 -113.2534
10616.432617 90.776 -116.1977
10693.363281 90.759 -119.1138
10770.852539 90.698 -121.9601
10848.902344 90.597 -124.7292
10927.517578 90.460 -127.3999
11006.703125 90.290 -129.9733
11086.461914 90.090 -132.4451
11166.798828 89.860 -134.8112
11247.718750 89.603 -137.0695
11329.223633 89.318 -139.2103
11411.320312 89.005 -141.2279
11494.011719 88.666 -143.1082
11577.301758 88.300 -144.8463
11661.195312 87.904 -146.4079
11745.697266 87.476 -147.7720
11830.811523 87.018 -148.8927
11916.542969 86.532 -149.7327
12002.894531 86.020 -150.2451
12089.873047 85.481 -150.3841
12177.480469 84.925 -150.1098
12265.723633 84.355 -149.3613
12354.606445 83.791 -148.1558
12444.132812 83.250 -146.4649
12534.308594 82.751 -144.3664
12625.136719 82.311 -141.8920
12716.624023 81.949 -139.1530
12808.773438 81.685 -136.2295
12901.591797 81.519 -133.2489
12995.082031 81.463 -130.3338
13089.250000 81.498 -127.5802
13184.099609 81.614 -125.1151
13279.636719 81.789 -122.9681
13375.867188 82.000 -121.2209
13472.793945 82.230 -119.8438
13570.422852 82.458 -118.8568
13668.759766 82.678 -118.1921
13767.809570 82.872 -117.8124
13867.577148 83.043 -117.6435
13968.067383 83.185 -117.6187
14069.285156 83.301 -117.6775
14171.237305 83.392 -117.7483
14273.927734 83.469 -117.7989
14377.362305 83.537 -117.7709
14481.546875 83.608 -117.6717
14586.486328 83.691 -117.4753
14692.185547 83.797 -117.2246
14798.651367 83.939 -116.9314
14905.888672 84.120 -116.6644
15013.902344 84.347 -116.4693
15122.700195 84.618 -116.4267
15232.285156 84.938 -116.6110
15342.664062 85.291 -117.0861
15453.843750 85.667 -117.9322
15565.829102 86.053 -119.1751
15678.625000 86.435 -120.8708
15792.239258 86.800 -123.0062
15906.675781 87.133 -125.6052
16021.942383 87.425 -128.6127
16138.043945 87.661 -132.0072
16254.986328 87.838 -135.7107
16372.777344 87.949 -139.6630
16491.421875 87.994 -143.7878
16610.923828 87.971 -148.0092
16731.294922 87.881 -152.2643
16852.535156 87.723 -156.4788
16974.656250 87.505 -160.6093
17097.662109 87.228 -164.5921
17221.558594 86.900 -168.4133
17346.353516 86.526 -172.0372
17472.052734 86.111 -175.4658
17598.662109 85.660 -178.6883
17726.189453 85.175 178.2919
17854.640625 84.661 175.4715
17984.021484 84.117 172.8619
18114.341797 83.547 170.4599
18245.605469 82.947 168.3055
18377.820312 82.312 166.4166
18510.994141 81.645 164.8570
18645.132812 80.943 163.6831
18780.242188 80.212 162.9368
18916.332031 79.455 162.6786
19053.408203 78.685 162.9073
19191.476562 77.907 163.6613
19330.546875 77.145 164.8832
19470.623047 76.418 166.5664
19611.714844 75.745 168.5947
19753.830078 75.151 170.8840
19896.974609 74.637 173.3289
