* Measurement data measured by REW V5.20.13
* Source: C:\Users\kurin\Desktop\Targets and Curves\Resolve\Img\Lecram\Aeon 2 Noire perf pads_SPL.txt
* Format: Comma/Tab/Space delimited data
* Dated: Aug 15, 2023 3:17:35 PM
* REW Settings:
*  C-weighting compensation: Off
*  Target level: 75.0 dB
* Note: ; Measurement imported from C:\Users\kurin\Desktop\Targets and Curves\Resolve\Img\Lecram\Aeon 2 Noire perf pads_SPL.txt Format: Comma/Tab/Space delimited data 623 values loaded, 5 Hz to 39,792 Hz log spaced 
* Measurement: Aeon 2 Noire perf pads_SPL
* Smoothing: 1/48 octave
* Frequency Step: 1/96 octave
* Start Frequency: 5.000 Hz
*
* Freq(Hz) SPL(dB) Phase(degrees)
5.000000 87.836 -1.1360
5.036232 87.836 -1.1379
5.072727 87.836 -1.1400
5.109486 87.836 -1.1427
5.146511 87.836 -1.1460
5.183805 87.836 -1.1499
5.221369 87.835 -1.1540
5.259205 87.834 -1.1579
5.297316 87.834 -1.1620
5.335702 87.834 -1.1669
5.374367 87.834 -1.1720
5.413311 87.834 -1.1770
5.452538 87.833 -1.1820
5.492050 87.832 -1.1870
5.531847 87.832 -1.1920
5.571934 87.832 -1.1969
5.612310 87.832 -1.2020
5.652979 87.832 -1.2075
5.693943 87.831 -1.2130
5.735204 87.830 -1.2180
5.776763 87.830 -1.2230
5.818624 87.830 -1.2284
5.860788 87.830 -1.2340
5.903258 87.830 -1.2395
5.946035 87.829 -1.2450
5.989123 87.829 -1.2505
6.032523 87.828 -1.2560
6.076237 87.827 -1.2615
6.120268 87.827 -1.2670
6.164618 87.827 -1.2724
6.209289 87.827 -1.2780
6.254284 87.827 -1.2840
6.299605 87.826 -1.2900
6.345255 87.825 -1.2955
6.391235 87.825 -1.3010
6.437549 87.825 -1.3069
6.484198 87.825 -1.3130
6.531185 87.825 -1.3190
6.578513 87.824 -1.3250
6.626183 87.823 -1.3309
6.674199 87.823 -1.3370
6.722563 87.823 -1.3435
6.771278 87.823 -1.3500
6.820345 87.823 -1.3560
6.869768 87.822 -1.3620
6.919549 87.821 -1.3684
6.969691 87.821 -1.3750
7.020196 87.821 -1.3815
7.071068 87.821 -1.3880
7.122308 87.821 -1.3944
7.173919 87.820 -1.4010
7.225904 87.820 -1.4080
7.278266 87.819 -1.4150
7.331007 87.818 -1.4215
7.384131 87.818 -1.4280
7.437639 87.818 -1.4349
7.491535 87.818 -1.4420
7.545822 87.818 -1.4490
7.600502 87.817 -1.4560
7.655579 87.816 -1.4629
7.711054 87.816 -1.4700
7.766932 87.816 -1.4774
7.823214 87.816 -1.4850
7.879904 87.816 -1.4926
7.937005 87.815 -1.5000
7.994520 87.814 -1.5069
8.052452 87.814 -1.5140
8.110803 87.814 -1.5219
8.169578 87.814 -1.5300
8.228777 87.814 -1.5375
8.288406 87.813 -1.5450
8.348468 87.812 -1.5529
8.408964 87.812 -1.5610
8.469899 87.812 -1.5690
8.531276 87.812 -1.5770
8.593097 87.812 -1.5850
8.655366 87.811 -1.5930
8.718086 87.811 -1.6009
8.781260 87.810 -1.6090
8.844893 87.809 -1.6174
8.908987 87.809 -1.6260
8.973545 87.809 -1.6345
9.038571 87.809 -1.6430
9.104069 87.809 -1.6515
9.170040 87.808 -1.6600
9.236490 87.807 -1.6684
9.303422 87.807 -1.6770
9.370838 87.807 -1.6859
9.438744 87.807 -1.6950
9.507140 87.807 -1.7040
9.576033 87.806 -1.7130
9.645425 87.805 -1.7219
9.715320 87.805 -1.7310
9.785721 87.805 -1.7404
9.856632 87.805 -1.7500
9.928058 87.805 -1.7595
10.000000 87.804 -1.7690
10.072464 87.803 -1.7784
10.145453 87.803 -1.7880
10.218971 87.803 -1.7980
10.293022 87.803 -1.8080
10.367610 87.803 -1.8174
10.442738 87.802 -1.8270
10.518411 87.802 -1.8374
10.594631 87.801 -1.8480
10.671404 87.800 -1.8580
10.748734 87.800 -1.8680
10.826623 87.800 -1.8784
10.905077 87.800 -1.8890
10.984100 87.800 -1.8994
11.063695 87.799 -1.9100
11.143867 87.798 -1.9209
11.224621 87.798 -1.9320
11.305959 87.798 -1.9430
11.387886 87.798 -1.9540
11.470407 87.798 -1.9649
11.553527 87.797 -1.9760
11.637249 87.796 -1.9874
11.721577 87.796 -1.9990
11.806517 87.796 -2.0104
11.892071 87.796 -2.0220
11.978246 87.796 -2.0339
12.065045 87.795 -2.0460
12.152473 87.794 -2.0579
12.240536 87.794 -2.0700
12.329235 87.794 -2.0824
12.418578 87.794 -2.0950
12.508568 87.794 -2.1075
12.599211 87.793 -2.1200
12.690510 87.793 -2.1324
12.782471 87.792 -2.1450
12.875097 87.791 -2.1579
12.968395 87.791 -2.1710
13.062370 87.791 -2.1839
13.157025 87.791 -2.1970
13.252366 87.791 -2.2104
13.348398 87.790 -2.2240
13.445127 87.789 -2.2379
13.542556 87.789 -2.2520
13.640691 87.789 -2.2659
13.739536 87.789 -2.2800
13.839099 87.789 -2.2944
13.939383 87.788 -2.3090
14.040393 87.787 -2.3234
14.142136 87.787 -2.3380
14.244616 87.787 -2.3529
14.347837 87.787 -2.3680
14.451808 87.787 -2.3834
14.556532 87.786 -2.3990
14.662014 87.785 -2.4144
14.768262 87.785 -2.4300
14.875278 87.785 -2.4459
14.983070 87.785 -2.4620
15.091644 87.785 -2.4784
15.201005 87.784 -2.4950
15.311157 87.783 -2.5119
15.422109 87.783 -2.5290
15.533863 87.782 -2.5464
15.646428 87.782 -2.5640
15.759809 87.782 -2.5819
15.874010 87.782 -2.6000
15.989040 87.782 -2.6184
16.104904 87.781 -2.6370
16.221605 87.780 -2.6558
16.339155 87.780 -2.6750
16.457554 87.780 -2.6948
16.576813 87.780 -2.7150
16.696936 87.780 -2.7354
16.817928 87.779 -2.7560
16.939798 87.778 -2.7767
17.062551 87.778 -2.7980
17.186193 87.778 -2.8202
17.310732 87.778 -2.8430
17.436172 87.778 -2.8662
17.562521 87.777 -2.8900
17.689787 87.776 -2.9141
17.817974 87.776 -2.9390
17.947090 87.776 -2.9650
18.077143 87.776 -2.9920
18.208138 87.776 -3.0199
18.340080 87.775 -3.0490
18.472980 87.775 -3.0797
18.606844 87.774 -3.1120
18.741676 87.773 -3.1452
18.877487 87.773 -3.1810
19.014280 87.773 -3.2206
19.152065 87.773 -3.2639
19.290850 87.772 -3.3114
19.430639 87.770 -3.3630
19.571442 87.768 -3.4194
19.713264 87.765 -3.4789
19.856115 87.759 -3.5411
20.000000 87.752 -3.6019
20.144928 87.743 -3.6578
20.290907 87.733 -3.7070
20.437943 87.721 -3.7473
20.586044 87.707 -3.7760
20.735220 87.692 -3.7888
20.885475 87.677 -3.7870
21.036821 87.663 -3.7690
21.189262 87.651 -3.7390
21.342808 87.641 -3.7001
21.497467 87.632 -3.6541
21.653246 87.625 -3.6031
21.810154 87.619 -3.5501
21.968201 87.616 -3.4984
22.127390 87.615 -3.4481
22.287735 87.614 -3.4006
22.449242 87.613 -3.3550
22.611917 87.614 -3.3109
22.775772 87.615 -3.2681
22.940815 87.616 -3.2256
23.107054 87.619 -3.1851
23.274498 87.624 -3.1464
23.443153 87.630 -3.1130
23.613033 87.637 -3.0889
23.784142 87.645 -3.0730
23.956491 87.652 -3.0659
24.130091 87.660 -3.0670
24.304947 87.668 -3.0764
24.481071 87.675 -3.0930
24.658470 87.681 -3.1173
24.837156 87.686 -3.1450
25.017136 87.689 -3.1725
25.198421 87.690 -3.1980
25.381020 87.691 -3.2182
25.564941 87.692 -3.2340
25.750195 87.693 -3.2445
25.936790 87.695 -3.2510
26.124741 87.697 -3.2534
26.314051 87.701 -3.2550
26.504732 87.706 -3.2584
26.696796 87.713 -3.2660
26.890253 87.720 -3.2815
27.085112 87.728 -3.3040
27.281382 87.736 -3.3338
27.479073 87.743 -3.3709
27.678198 87.750 -3.4159
27.878765 87.756 -3.4669
28.080786 87.761 -3.5234
28.284271 87.765 -3.5819
28.489231 87.767 -3.6394
28.695675 87.769 -3.6949
28.903616 87.770 -3.7468
29.113064 87.770 -3.7949
29.324028 87.770 -3.8385
29.536524 87.770 -3.8780
29.750557 87.771 -3.9132
29.966141 87.772 -3.9450
30.183289 87.773 -3.9728
30.402010 87.776 -4.0000
30.622314 87.781 -4.0283
30.844217 87.787 -4.0610
31.067726 87.794 -4.1020
31.292856 87.802 -4.1509
31.519617 87.809 -4.2085
31.748020 87.817 -4.2749
31.978081 87.825 -4.3510
32.209808 87.832 -4.4359
32.443211 87.838 -4.5301
32.678310 87.842 -4.6309
32.915108 87.845 -4.7359
33.153625 87.847 -4.8439
33.393871 87.848 -4.9523
33.635857 87.847 -5.0618
33.879597 87.845 -5.1725
34.125103 87.842 -5.2829
34.372387 87.838 -5.3923
34.621464 87.832 -5.4978
34.872345 87.825 -5.5960
35.125042 87.817 -5.6879
35.379574 87.810 -5.7730
35.635948 87.802 -5.8529
35.894180 87.794 -5.9287
36.154285 87.787 -6.0009
36.416275 87.780 -6.0692
36.680161 87.774 -6.1379
36.945961 87.770 -6.2113
37.213688 87.766 -6.2889
37.483353 87.760 -6.3727
37.754974 87.753 -6.4589
38.028561 87.745 -6.5439
38.304131 87.737 -6.6279
38.581699 87.728 -6.7108
38.861279 87.717 -6.7899
39.142883 87.705 -6.8635
39.426529 87.692 -6.9289
39.712231 87.679 -6.9816
40.000000 87.666 -7.0259
40.289856 87.656 -7.0642
40.581814 87.647 -7.0980
40.875885 87.638 -7.1290
41.172089 87.630 -7.1590
41.470440 87.625 -7.1885
41.770950 87.622 -7.2229
42.073643 87.621 -7.2665
42.378525 87.621 -7.3229
42.685616 87.623 -7.3971
42.994934 87.624 -7.4899
43.306492 87.624 -7.6057
43.620308 87.622 -7.7378
43.936401 87.616 -7.8825
44.254780 87.606 -8.0348
44.575470 87.593 -8.1904
44.898483 87.575 -8.3438
45.223835 87.553 -8.4893
45.551544 87.527 -8.6218
45.881630 87.499 -8.7340
46.214108 87.468 -8.8269
46.548996 87.436 -8.8984
46.886307 87.404 -8.9499
47.226067 87.372 -8.9814
47.568283 87.340 -8.9950
47.912983 87.310 -8.9921
48.260181 87.281 -8.9750
48.609894 87.253 -8.9467
48.962143 87.226 -8.9071
49.316940 87.200 -8.8567
49.674313 87.175 -8.7971
50.034271 87.153 -8.7284
50.396843 87.132 -8.6551
50.762039 87.114 -8.5820
51.129883 87.097 -8.5091
51.500389 87.081 -8.4388
51.873581 87.066 -8.3691
52.249481 87.050 -8.2986
52.628101 87.035 -8.2281
53.009464 87.022 -8.1587
53.393593 87.009 -8.0891
53.780506 86.994 -8.0196
54.170223 86.979 -7.9471
54.562763 86.965 -7.8674
54.958145 86.952 -7.7841
55.356396 86.940 -7.7003
55.757530 86.928 -7.6141
56.161572 86.915 -7.5251
56.568542 86.902 -7.4322
56.978462 86.890 -7.3331
57.391350 86.879 -7.2302
57.807232 86.869 -7.1255
58.226128 86.859 -7.0182
58.648056 86.849 -6.9091
59.073048 86.839 -6.7952
59.501114 86.828 -6.6744
59.932281 86.818 -6.5452
60.366577 86.808 -6.4053
60.804020 86.799 -6.2553
61.244629 86.792 -6.0956
61.688435 86.785 -5.9243
62.135452 86.779 -5.7390
62.585712 86.774 -5.5413
63.039234 86.773 -5.3304
63.496040 86.776 -5.1124
63.956161 86.783 -4.8932
64.419617 86.794 -4.6734
64.886421 86.807 -4.4543
65.356621 86.823 -4.2394
65.830215 86.844 -4.0323
66.307251 86.867 -3.8334
66.787743 86.891 -3.6452
67.271713 86.918 -3.4653
67.759193 86.947 -3.2906
68.250206 86.979 -3.1263
68.744774 87.015 -2.9770
69.242928 87.053 -2.8412
69.744690 87.090 -2.7198
70.250084 87.129 -2.6112
70.759148 87.170 -2.5132
71.271896 87.213 -2.4281
71.788361 87.258 -2.3581
72.308571 87.305 -2.3021
72.832550 87.352 -2.2586
73.360321 87.401 -2.2310
73.891922 87.453 -2.2215
74.427376 87.508 -2.2330
74.966705 87.563 -2.2690
75.509949 87.620 -2.3299
76.057121 87.678 -2.4159
76.608261 87.736 -2.5297
77.163399 87.795 -2.6749
77.722557 87.853 -2.8486
78.285767 87.908 -3.0504
78.853058 87.961 -3.2765
79.424461 88.013 -3.5226
80.000000 88.063 -3.7904
80.579712 88.112 -4.0808
81.163628 88.159 -4.3924
81.751770 88.203 -4.7244
82.344177 88.245 -5.0763
82.940880 88.284 -5.4470
83.541901 88.321 -5.8362
84.147285 88.354 -6.2448
84.757050 88.382 -6.6672
85.371231 88.406 -7.0993
85.989868 88.425 -7.5381
86.612984 88.441 -7.9799
87.240616 88.453 -8.4231
87.872803 88.462 -8.8658
88.509560 88.467 -9.3061
89.150940 88.469 -9.7417
89.796967 88.468 -10.1721
90.447670 88.464 -10.5962
91.103088 88.458 -11.0131
91.763260 88.450 -11.4208
92.428215 88.440 -11.8212
93.097992 88.429 -12.2158
93.772614 88.417 -12.6032
94.452133 88.403 -12.9820
95.136566 88.388 -13.3532
95.825966 88.373 -13.7160
96.520363 88.358 -14.0742
97.219788 88.343 -14.4315
97.924286 88.328 -14.7872
98.633881 88.312 -15.1406
99.348625 88.297 -15.4963
100.068542 88.284 -15.8574
100.793686 88.270 -16.2271
101.524078 88.255 -16.6101
102.259766 88.239 -17.0050
103.000778 88.223 -17.4111
103.747162 88.205 -17.8312
104.498962 88.185 -18.2694
105.256203 88.162 -18.7211
106.018929 88.133 -19.1857
106.787186 88.100 -19.6551
107.561012 88.061 -20.1220
108.340446 88.018 -20.5842
109.125526 87.970 -21.0389
109.916290 87.918 -21.4812
110.712791 87.861 -21.9064
111.515060 87.800 -22.3112
112.323143 87.737 -22.6898
113.137085 87.671 -23.0453
113.956924 87.605 -23.3772
114.782700 87.538 -23.6892
115.614464 87.472 -23.9841
116.452255 87.405 -24.2635
117.296112 87.338 -24.5289
118.146095 87.271 -24.7835
119.002228 87.206 -25.0292
119.864563 87.141 -25.2703
120.733154 87.077 -25.5130
121.608040 87.012 -25.7545
122.489258 86.945 -25.9942
123.376869 86.876 -26.2314
124.270905 86.807 -26.4663
125.171425 86.735 -26.6956
126.078468 86.659 -26.9174
126.992081 86.581 -27.1285
127.912323 86.502 -27.3245
128.839233 86.421 -27.5066
129.772842 86.339 -27.6752
130.713242 86.255 -27.8287
131.660431 86.169 -27.9654
132.614502 86.082 -28.0867
133.575485 85.996 -28.1925
134.543427 85.910 -28.2858
135.518387 85.823 -28.3709
136.500412 85.734 -28.4439
137.489548 85.644 -28.5015
138.485855 85.553 -28.5459
139.489380 85.463 -28.5782
140.500168 85.371 -28.5980
141.518295 85.277 -28.6064
142.543793 85.182 -28.6000
143.576721 85.086 -28.5753
144.617142 84.989 -28.5331
145.665100 84.891 -28.4740
146.720642 84.792 -28.3962
147.783844 84.691 -28.2999
148.854752 84.587 -28.1803
149.933411 84.483 -28.0330
151.019897 84.378 -27.8575
152.114243 84.274 -27.6515
153.216522 84.169 -27.4167
154.326797 84.065 -27.1539
155.445114 83.962 -26.8637
156.571533 83.861 -26.5462
157.706116 83.761 -26.2038
158.848923 83.664 -25.8390
160.000000 83.569 -25.4520
161.159424 83.475 -25.0442
162.327255 83.383 -24.6140
163.503540 83.292 -24.1602
164.688354 83.203 -23.6830
165.881760 83.117 -23.1821
167.083801 83.032 -22.6574
168.294571 82.950 -22.1086
169.514099 82.871 -21.5364
170.742462 82.796 -20.9416
171.979736 82.724 -20.3247
173.225967 82.656 -19.6858
174.481232 82.591 -19.0275
175.745605 82.532 -18.3519
177.019119 82.478 -17.6607
178.301880 82.428 -16.9566
179.593933 82.383 -16.2399
180.895340 82.343 -15.5100
182.206177 82.308 -14.7718
183.526520 82.280 -14.0287
184.856430 82.258 -13.2847
186.195984 82.241 -12.5451
187.545227 82.229 -11.8088
188.904266 82.221 -11.0752
190.273132 82.217 -10.3468
191.651932 82.220 -9.6257
193.040726 82.227 -8.9120
194.439575 82.237 -8.2060
195.848572 82.251 -7.5080
197.267761 82.270 -6.8164
198.697250 82.295 -6.1366
200.137085 82.325 -5.4727
201.587372 82.361 -4.8275
203.048157 82.401 -4.2046
204.519531 82.445 -3.6057
206.001556 82.492 -3.0330
207.494324 82.543 -2.4893
208.997925 82.597 -1.9787
210.512405 82.654 -1.4991
212.037857 82.710 -1.0509
213.574371 82.768 -0.6310
215.122025 82.826 -0.2365
216.680893 82.885 0.1330
218.251053 82.943 0.4790
219.832581 83.001 0.8021
221.425583 83.060 1.1032
223.030121 83.119 1.3823
224.646286 83.178 1.6394
226.274170 83.236 1.8754
227.913849 83.294 2.0916
229.565399 83.351 2.2875
231.228928 83.408 2.4630
232.904510 83.464 2.6186
234.592224 83.518 2.7535
236.292191 83.571 2.8717
238.004456 83.620 2.9763
239.729126 83.668 3.0688
241.466309 83.715 3.1515
243.216080 83.761 3.2248
244.978516 83.805 3.2896
246.753738 83.847 3.3468
248.541809 83.888 3.3977
250.342850 83.929 3.4419
252.156937 83.968 3.4799
253.984161 84.006 3.5109
255.824646 84.043 3.5338
257.678467 84.080 3.5500
259.545685 84.115 3.5598
261.426483 84.148 3.5650
263.320862 84.180 3.5677
265.229004 84.211 3.5670
267.150970 84.242 3.5632
269.086853 84.272 3.5550
271.036774 84.301 3.5412
273.000824 84.330 3.5221
274.979095 84.358 3.4984
276.971710 84.385 3.4681
278.978760 84.412 3.4291
281.000336 84.438 3.3821
283.036591 84.461 3.3256
285.087585 84.482 3.2642
287.153442 84.501 3.2009
289.234283 84.517 3.1392
291.330200 84.531 3.0837
293.441284 84.543 3.0331
295.567688 84.555 2.9879
297.709503 84.566 2.9471
299.866821 84.576 2.9094
302.039795 84.586 2.8761
304.228485 84.595 2.8484
306.433044 84.603 2.8251
308.653595 84.611 2.8054
310.890228 84.619 2.7890
313.143066 84.627 2.7751
315.412231 84.634 2.7640
317.697845 84.641 2.7567
320.000000 84.649 2.7510
322.318848 84.657 2.7453
324.654510 84.666 2.7390
327.007080 84.674 2.7310
329.376709 84.681 2.7210
331.763519 84.689 2.7086
334.167603 84.696 2.6940
336.589142 84.702 2.6764
339.028198 84.706 2.6590
341.484924 84.709 2.6445
343.959473 84.711 2.6340
346.451935 84.712 2.6300
348.962463 84.713 2.6320
351.491211 84.713 2.6405
354.038239 84.713 2.6549
356.603760 84.713 2.6752
359.187866 84.713 2.7009
361.790680 84.713 2.7314
364.412354 84.713 2.7669
367.053040 84.713 2.8071
369.712860 84.713 2.8528
372.391968 84.713 2.9050
375.090454 84.713 2.9638
377.808533 84.713 3.0300
380.546265 84.714 3.1038
383.303864 84.716 3.1864
386.081451 84.719 3.2757
388.879150 84.724 3.3706
391.697144 84.731 3.4687
394.535522 84.740 3.5676
397.394501 84.751 3.6657
400.274170 84.764 3.7616
403.174744 84.778 3.8527
406.096313 84.794 3.9362
409.039062 84.812 4.0118
412.003113 84.830 4.0779
414.988647 84.849 4.1358
417.995850 84.868 4.1862
421.024811 84.888 4.2289
424.075714 84.909 4.2645
427.148743 84.930 4.2919
430.244049 84.951 4.3106
433.361786 84.973 4.3200
436.502106 84.995 4.3195
439.665161 85.018 4.3081
442.851166 85.041 4.2845
446.060242 85.064 4.2481
449.292572 85.086 4.1964
452.548340 85.107 4.1332
455.827698 85.125 4.0611
459.130798 85.142 3.9813
462.457855 85.159 3.8960
465.809021 85.174 3.8043
469.184448 85.188 3.7051
472.584381 85.200 3.6003
476.008911 85.211 3.4915
479.458252 85.221 3.3784
482.932617 85.229 3.2614
486.432159 85.236 3.1394
489.957031 85.242 3.0107
493.507477 85.246 2.8774
497.083618 85.247 2.7397
500.685699 85.245 2.6015
504.313873 85.241 2.4663
507.968323 85.234 2.3354
511.649292 85.225 2.2110
515.356934 85.214 2.0944
519.091370 85.200 1.9862
522.852966 85.184 1.8903
526.641724 85.166 1.8110
530.458008 85.146 1.7482
534.301941 85.127 1.7039
538.173706 85.107 1.6751
542.073547 85.089 1.6587
546.001648 85.070 1.6560
549.958191 85.051 1.6675
553.943420 85.032 1.6919
557.957520 85.017 1.7299
562.000671 85.003 1.7758
566.073181 84.991 1.8246
570.175171 84.981 1.8758
574.306885 84.972 1.9279
578.468567 84.965 1.9798
582.660400 84.959 2.0313
586.882568 84.954 2.0788
591.135376 84.952 2.1194
595.419006 84.950 2.1519
599.733643 84.948 2.1739
604.079590 84.946 2.1860
608.456970 84.945 2.1870
612.866089 84.942 2.1790
617.307190 84.936 2.1628
621.780457 84.929 2.1421
626.286133 84.920 2.1209
630.824463 84.910 2.1001
635.395691 84.898 2.0809
640.000000 84.884 2.0660
644.637695 84.868 2.0588
649.309021 84.851 2.0580
654.014160 84.834 2.0643
658.753418 84.816 2.0760
663.527039 84.798 2.0909
668.335205 84.778 2.1109
673.178284 84.757 2.1365
678.056396 84.735 2.1689
682.969849 84.712 2.2092
687.918945 84.688 2.2588
692.903870 84.662 2.3193
697.924927 84.635 2.3917
702.982422 84.608 2.4775
708.076477 84.580 2.5776
713.207520 84.551 2.6934
718.375732 84.521 2.8255
723.581360 84.493 2.9759
728.824707 84.465 3.1424
734.106079 84.438 3.3238
739.425720 84.412 3.5183
744.783936 84.388 3.7233
750.180908 84.365 3.9392
755.617065 84.343 4.1666
761.092529 84.322 4.4031
766.607727 84.303 4.6469
772.162903 84.286 4.8971
777.758301 84.270 5.1511
783.394287 84.254 5.4121
789.071045 84.237 5.6818
794.789001 84.220 5.9620
800.548340 84.205 6.2539
806.349487 84.190 6.5599
812.192627 84.174 6.8816
818.078125 84.159 7.2227
824.006226 84.145 7.5883
829.977295 84.134 7.9766
835.991699 84.126 8.3880
842.049622 84.121 8.8214
848.151428 84.120 9.2773
854.297485 84.125 9.7512
860.488098 84.136 10.2414
866.723572 84.155 10.7392
873.004211 84.182 11.2387
879.330322 84.216 11.7303
885.702332 84.258 12.2046
892.120483 84.308 12.6544
898.585144 84.364 13.0702
905.096680 84.425 13.4497
911.655396 84.488 13.7867
918.261597 84.554 14.0830
924.915710 84.620 14.3365
931.618042 84.685 14.5523
938.368896 84.748 14.7315
945.168762 84.808 14.8835
952.017822 84.863 15.0153
958.916504 84.915 15.1346
965.865234 84.963 15.2483
972.864319 85.009 15.3646
979.914062 85.050 15.4919
987.014954 85.090 15.6354
994.167236 85.129 15.8043
1001.371399 85.171 15.9943
1008.627747 85.218 16.2078
1015.936646 85.271 16.4330
1023.298584 85.331 16.6643
1030.713867 85.400 16.8863
1038.182739 85.478 17.0875
1045.705933 85.566 17.2504
1053.283447 85.662 17.3563
1060.916016 85.764 17.3970
1068.603882 85.867 17.3553
1076.347412 85.968 17.2396
1084.147095 86.062 17.0481
1092.003296 86.150 16.7949
1099.916382 86.229 16.4891
1107.886841 86.299 16.1445
1115.915039 86.358 15.7735
1124.001343 86.407 15.3904
1132.146362 86.446 15.0128
1140.350342 86.477 14.6434
1148.613770 86.503 14.2910
1156.937134 86.525 13.9544
1165.320801 86.542 13.6353
1173.765137 86.556 13.3333
1182.270752 86.567 13.0496
1190.838013 86.576 12.7811
1199.467285 86.583 12.5248
1208.159180 86.588 12.2819
1216.913940 86.590 12.0531
1225.732178 86.591 11.8378
1234.614380 86.591 11.6354
1243.560913 86.589 11.4467
1252.572266 86.585 11.2715
1261.648926 86.579 11.1116
1270.791382 86.572 10.9688
1280.000000 86.565 10.8425
1289.275391 86.558 10.7325
1298.618042 86.550 10.6384
1308.028320 86.542 10.5601
1317.506836 86.535 10.4962
1327.054077 86.529 10.4467
1336.670410 86.524 10.4081
1346.356567 86.520 10.3776
1356.112793 86.518 10.3531
1365.939697 86.517 10.3315
1375.837891 86.516 10.3131
1385.807739 86.516 10.2967
1395.849854 86.516 10.2830
1405.964844 86.516 10.2720
1416.152954 86.516 10.2640
1426.415039 86.516 10.2597
1436.751465 86.516 10.2590
1447.162720 86.516 10.2620
1457.649414 86.516 10.2690
1468.212158 86.516 10.2804
1478.851440 86.516 10.2959
1489.567871 86.516 10.3152
1500.361816 86.516 10.3389
1511.234131 86.516 10.3676
1522.185059 86.516 10.4008
1533.215454 86.516 10.4386
1544.325806 86.516 10.4808
1555.516602 86.516 10.5272
1566.788574 86.516 10.5778
1578.142090 86.516 10.6323
1589.578003 86.516 10.6907
1601.096680 86.515 10.7531
1612.698975 86.514 10.8197
1624.385254 86.513 10.8904
1636.156250 86.511 10.9666
1648.012451 86.507 11.0485
1659.954590 86.502 11.1396
1671.983398 86.495 11.2429
1684.099243 86.486 11.3605
1696.302856 86.476 11.4939
1708.594971 86.465 11.6473
1720.976196 86.451 11.8218
1733.447144 86.435 12.0270
1746.008423 86.416 12.2713
1758.660645 86.396 12.5587
1771.404663 86.377 12.8948
1784.240967 86.360 13.2843
1797.170288 86.343 13.7330
1810.193359 86.331 14.2438
1823.310791 86.325 14.8263
1836.523193 86.330 15.4664
1849.831421 86.349 16.1583
1863.236084 86.384 16.8867
1876.737793 86.434 17.6410
1890.337524 86.502 18.4007
1904.035645 86.590 19.1486
1917.833008 86.696 19.8633
1931.730469 86.819 20.5196
1945.728638 86.956 21.1116
1959.828125 87.103 21.6269
1974.029907 87.258 22.0594
1988.334473 87.424 22.3984
2002.742798 87.594 22.6452
2017.255493 87.764 22.7935
2031.873291 87.932 22.8549
2046.597168 88.099 22.8385
2061.427734 88.264 22.7466
2076.365479 88.428 22.5825
2091.411865 88.587 22.3521
2106.566895 88.741 22.0596
2121.832031 88.889 21.7125
2137.207764 89.033 21.3204
2152.694824 89.172 20.8818
2168.294189 89.308 20.3967
2184.006592 89.437 19.8705
2199.832764 89.559 19.3072
2215.773682 89.675 18.7105
2231.830078 89.786 18.0843
2248.002686 89.891 17.4318
2264.292725 89.987 16.7548
2280.700684 90.076 16.0610
2297.227539 90.158 15.3576
2313.874268 90.234 14.6479
2330.641602 90.304 13.9369
2347.530273 90.368 13.2270
2364.541504 90.427 12.5220
2381.676025 90.481 11.8232
2398.934570 90.531 11.1337
2416.318359 90.578 10.4520
2433.827881 90.622 9.7775
2451.464355 90.663 9.1108
2469.228760 90.701 8.4517
2487.121826 90.738 7.8018
2505.144531 90.772 7.1625
2523.297852 90.805 6.5328
2541.582764 90.837 5.9128
2560.000000 90.868 5.3007
2578.550781 90.899 4.6955
2597.236084 90.931 4.0948
2616.056641 90.964 3.4969
2635.013672 90.999 2.8985
2654.108154 91.035 2.2984
2673.340820 91.073 1.6887
2692.713135 91.115 1.0636
2712.225586 91.160 0.4161
2731.879395 91.207 -0.2604
2751.675781 91.256 -0.9736
2771.615479 91.307 -1.7300
2791.699707 91.360 -2.5393
2811.929688 91.413 -3.4106
2832.305908 91.465 -4.3524
2852.830078 91.514 -5.3755
2873.502930 91.556 -6.4810
2894.325439 91.589 -7.6764
2915.298828 91.609 -8.9530
2936.424316 91.612 -10.3126
2957.702881 91.595 -11.7307
2979.135742 91.553 -13.1958
3000.723633 91.484 -14.6706
3022.468262 91.385 -16.1263
3044.370117 91.258 -17.5247
3066.430908 91.100 -18.8282
3088.651611 90.917 -20.0070
3111.033203 90.709 -21.0240
3133.577148 90.482 -21.8645
3156.284180 90.241 -22.4988
3179.156006 89.993 -22.9354
3202.193359 89.747 -23.1654
3225.397949 89.506 -23.2122
3248.770508 89.276 -23.0887
3272.312500 89.060 -22.8175
3296.024902 88.861 -22.4191
3319.909180 88.679 -21.9136
3343.966797 88.517 -21.3228
3368.198486 88.374 -20.6613
3392.605713 88.249 -19.9472
3417.189941 88.142 -19.1906
3441.952393 88.053 -18.4055
3466.894287 87.981 -17.5987
3492.016846 87.925 -16.7784
3517.321289 87.884 -15.9538
3542.809326 87.860 -15.1336
3568.481934 87.850 -14.3267
3594.340576 87.855 -13.5446
3620.386719 87.872 -12.7875
3646.621582 87.899 -12.0595
3673.046387 87.936 -11.3603
3699.662842 87.983 -10.6895
3726.472168 88.040 -10.0509
3753.475586 88.106 -9.4475
3780.675049 88.182 -8.8805
3808.071289 88.265 -8.3507
3835.666016 88.358 -7.8622
3863.460938 88.458 -7.4171
3891.457275 88.567 -7.0218
3919.656250 88.685 -6.6823
3948.059814 88.808 -6.4012
3976.668945 88.937 -6.1841
4005.485596 89.070 -6.0266
4034.510986 89.205 -5.9264
4063.746582 89.343 -5.8821
4093.194336 89.486 -5.8897
4122.855469 89.632 -5.9545
4152.730957 89.784 -6.0787
4182.823730 89.939 -6.2679
4213.133789 90.099 -6.5265
4243.664062 90.261 -6.8612
4274.415527 90.427 -7.2778
4305.389648 90.593 -7.7843
4336.588379 90.760 -8.3918
4368.013184 90.923 -9.0964
4399.665527 91.079 -9.9026
4431.547363 91.226 -10.7954
4463.660156 91.362 -11.7653
4496.005371 91.486 -12.8007
4528.585449 91.600 -13.8913
4561.401367 91.702 -15.0235
4594.455078 91.791 -16.1827
4627.748535 91.870 -17.3622
4661.283203 91.941 -18.5491
4695.060547 92.005 -19.7471
4729.083008 92.063 -20.9545
4763.352051 92.116 -22.1752
4797.869141 92.164 -23.4109
4832.636719 92.208 -24.6666
4867.655762 92.247 -25.9473
4902.928711 92.280 -27.2545
4938.457520 92.308 -28.5931
4974.243652 92.328 -29.9594
5010.289062 92.339 -31.3533
5046.595703 92.341 -32.7698
5083.165527 92.334 -34.2074
5120.000000 92.317 -35.6569
5157.101562 92.288 -37.1115
5194.472168 92.247 -38.5629
5232.113281 92.196 -40.0014
5270.027344 92.135 -41.4239
5308.216309 92.066 -42.8238
5346.681641 91.989 -44.2013
5385.426270 91.906 -45.5535
5424.451172 91.816 -46.8836
5463.758789 91.722 -48.1919
5503.351562 91.622 -49.4837
5543.230957 91.519 -50.7635
5583.399414 91.412 -52.0338
5623.859375 91.298 -53.2996
5664.611816 91.179 -54.5579
5705.660156 91.051 -55.8086
5747.005859 90.916 -57.0477
5788.650879 90.772 -58.2733
5830.597656 90.620 -59.4769
5872.848633 90.457 -60.6528
5915.405762 90.284 -61.7903
5958.271484 90.101 -62.8790
6001.447266 89.910 -63.9118
6044.936523 89.711 -64.8794
6088.740234 89.506 -65.7787
6132.861816 89.297 -66.6010
6177.303223 89.086 -67.3544
6222.066406 88.877 -68.0366
6267.154297 88.673 -68.6699
6312.568359 88.476 -69.2660
6358.312012 88.287 -69.8550
6404.386719 88.108 -70.4629
6450.795898 87.934 -71.1145
6497.541016 87.765 -71.8437
6544.625000 87.593 -72.6497
6592.049805 87.410 -73.5545
6639.818359 87.210 -74.5229
6687.933594 86.984 -75.5499
6736.396973 86.725 -76.5669
6785.211426 86.426 -77.5310
6834.379883 86.086 -78.3582
6883.904785 85.701 -78.9749
6933.788574 85.278 -79.3062
6984.033691 84.815 -79.2610
7034.642578 84.330 -78.8133
7085.618652 83.836 -77.8895
7136.963867 83.355 -76.5428
7188.681152 82.909 -74.7659
7240.773438 82.518 -72.6692
7293.243164 82.205 -70.3140
7346.092773 81.979 -67.8425
7399.325684 81.859 -65.3768
7452.944336 81.827 -63.0392
7506.951172 81.881 -60.9759
7561.350098 81.992 -59.2380
7616.142578 82.140 -57.9319
7671.332031 82.303 -57.0375
7726.921875 82.457 -56.5953
7782.914551 82.588 -56.5275
7839.312500 82.676 -56.8086
7896.119629 82.716 -57.3209
7953.337891 82.693 -57.9740
8010.971191 82.613 -58.6575
8069.021973 82.474 -59.2564
8127.493164 82.286 -59.6933
8186.388672 82.051 -59.8624
8245.710938 81.786 -59.7346
8305.461914 81.503 -59.2318
8365.647461 81.222 -58.3963
8426.267578 80.966 -57.2113
8487.328125 80.748 -55.7781
8548.831055 80.591 -54.1508
8610.779297 80.498 -52.4569
8673.176758 80.484 -50.8080
8736.026367 80.531 -49.3075
8799.331055 80.633 -48.0851
8863.094727 80.765 -47.1739
8927.320312 80.908 -46.6619
8992.010742 81.042 -46.5128
9057.170898 81.147 -46.7544
9122.802734 81.208 -47.2806
9188.910156 81.204 -48.0427
9255.497070 81.135 -48.8944
9322.566406 80.988 -49.7197
9390.121094 80.768 -50.3772
9458.166016 80.473 -50.7259
9526.704102 80.116 -50.6478
9595.738281 79.698 -49.9881
9665.273438 79.252 -48.7164
9735.311523 78.798 -46.7213
9805.857422 78.376 -44.0939
9876.915039 78.021 -40.8295
9948.487305 77.769 -37.1072
10020.578125 77.663 -33.0245
10093.191406 77.710 -28.8237
10166.331055 77.949 -24.7186
10240.000000 78.325 -20.8941
10314.203125 78.810 -17.5863
10388.944336 79.365 -14.8554
10464.226562 79.951 -12.8495
10540.054688 80.541 -11.5367
10616.432617 81.100 -10.9819
10693.363281 81.613 -11.0450
10770.852539 82.049 -11.6611
10848.902344 82.415 -12.6638
10927.517578 82.708 -13.8967
11006.703125 82.936 -15.2615
11086.461914 83.106 -16.6288
11166.798828 83.225 -17.9370
11247.718750 83.299 -19.0883
11329.223633 83.342 -20.0635
11411.320312 83.367 -20.8035
11494.011719 83.385 -21.3327
11577.301758 83.407 -21.6414
11661.195312 83.444 -21.7737
11745.697266 83.507 -21.7493
11830.811523 83.601 -21.6328
11916.542969 83.735 -21.4742
12002.894531 83.907 -21.3376
12089.873047 84.119 -21.2845
12177.480469 84.365 -21.3720
12265.723633 84.641 -21.6651
12354.606445 84.936 -22.2023
12444.132812 85.242 -23.0433
12534.308594 85.545 -24.1889
12625.136719 85.833 -25.6720
12716.624023 86.097 -27.4568
12808.773438 86.324 -29.5357
12901.591797 86.511 -31.8552
12995.082031 86.651 -34.3803
13089.250000 86.743 -37.0474
13184.099609 86.779 -39.7987
13279.636719 86.764 -42.5807
13375.867188 86.698 -45.3308
13472.793945 86.584 -48.0180
13570.422852 86.426 -50.6013
13668.759766 86.224 -53.0489
13767.809570 85.979 -55.3276
13867.577148 85.694 -57.4006
13968.067383 85.373 -59.2365
14069.285156 85.016 -60.7861
14171.237305 84.624 -62.0099
14273.927734 84.203 -62.8477
14377.362305 83.754 -63.2316
14481.546875 83.295 -63.1447
14586.486328 82.839 -62.5299
14692.185547 82.411 -61.4417
14798.651367 82.031 -59.8725
14905.888672 81.727 -57.9520
15013.902344 81.528 -55.7449
15122.700195 81.446 -53.4411
15232.285156 81.510 -51.1962
15342.664062 81.690 -49.1802
15453.843750 81.976 -47.5875
15565.829102 82.330 -46.5023
15678.625000 82.722 -46.0829
15792.239258 83.118 -46.2981
15906.675781 83.479 -47.2110
16021.942383 83.791 -48.6946
16138.043945 84.031 -50.6956
16254.986328 84.195 -53.0525
16372.777344 84.272 -55.6278
16491.421875 84.271 -58.2942
16610.923828 84.195 -60.8922
16731.294922 84.059 -63.3810
16852.535156 83.873 -65.6583
16974.656250 83.651 -67.7499
17097.662109 83.407 -69.6309
17221.558594 83.147 -71.3530
17346.353516 82.881 -72.9508
17472.052734 82.605 -74.4521
17598.662109 82.322 -75.9089
17726.189453 82.019 -77.2823
17854.640625 81.686 -78.5814
17984.021484 81.319 -79.7133
18114.341797 80.908 -80.6145
18245.605469 80.459 -81.2037
18377.820312 79.969 -81.3812
18510.994141 79.458 -81.1377
18645.132812 78.938 -80.4056
18780.242188 78.432 -79.2613
18916.332031 77.962 -77.7213
19053.408203 77.543 -75.9000
19191.476562 77.201 -73.8829
19330.546875 76.931 -71.7735
19470.623047 76.741 -69.6835
19611.714844 76.616 -67.6740
19753.830078 76.547 -65.8452
19896.974609 76.515 -64.1915
