* Measurement data measured by REW V5.20.13
* Source: C:\Users\kurin\Desktop\Targets and Curves\Resolve\Img\Lecram\BW PX8 ANC_SPL.txt
* Format: Comma/Tab/Space delimited data
* Dated: Aug 15, 2023 3:23:35 PM
* REW Settings:
*  C-weighting compensation: Off
*  Target level: 75.0 dB
* Note: ; Measurement imported from C:\Users\kurin\Desktop\Targets and Curves\Resolve\Img\Lecram\BW PX8 ANC_SPL.txt Format: Comma/Tab/Space delimited data 623 values loaded, 5 Hz to 39,792 Hz log spaced 
* Measurement: BW PX8 ANC_SPL
* Smoothing: 1/48 octave
* Frequency Step: 1/96 octave
* Start Frequency: 5.000 Hz
*
* Freq(Hz) SPL(dB) Phase(degrees)
5.000000 103.297 -3.7540
5.036232 103.297 -3.7617
5.072727 103.296 -3.7700
5.109486 103.296 -3.7796
5.146511 103.295 -3.7910
5.183805 103.295 -3.8053
5.221369 103.294 -3.8210
5.259205 103.293 -3.8366
5.297316 103.292 -3.8530
5.335702 103.291 -3.8712
5.374367 103.290 -3.8900
5.413311 103.289 -3.9084
5.452538 103.288 -3.9270
5.492050 103.287 -3.9459
5.531847 103.286 -3.9650
5.571934 103.286 -3.9839
5.612310 103.285 -4.0030
5.652979 103.284 -4.0224
5.693943 103.283 -4.0420
5.735204 103.282 -4.0619
5.776763 103.281 -4.0820
5.818624 103.280 -4.1019
5.860788 103.279 -4.1220
5.903258 103.278 -4.1424
5.946035 103.277 -4.1630
5.989123 103.276 -4.1834
6.032523 103.275 -4.2040
6.076237 103.274 -4.2249
6.120268 103.273 -4.2460
6.164618 103.272 -4.2674
6.209289 103.271 -4.2890
6.254284 103.270 -4.3104
6.299605 103.269 -4.3320
6.345255 103.268 -4.3539
6.391235 103.268 -4.3760
6.437549 103.267 -4.3984
6.484198 103.266 -4.4210
6.531185 103.265 -4.4434
6.578513 103.264 -4.4660
6.626183 103.263 -4.4889
6.674199 103.262 -4.5120
6.722563 103.261 -4.5354
6.771278 103.260 -4.5590
6.820345 103.259 -4.5829
6.869768 103.258 -4.6070
6.919549 103.257 -4.6309
6.969691 103.256 -4.6550
7.020196 103.255 -4.6794
7.071068 103.254 -4.7040
7.122308 103.253 -4.7289
7.173919 103.252 -4.7540
7.225904 103.252 -4.7789
7.278266 103.251 -4.8040
7.331007 103.250 -4.8294
7.384131 103.249 -4.8550
7.437639 103.248 -4.8809
7.491535 103.247 -4.9070
7.545822 103.246 -4.9334
7.600502 103.245 -4.9600
7.655579 103.244 -4.9869
7.711054 103.243 -5.0140
7.766932 103.242 -5.0414
7.823214 103.241 -5.0690
7.879904 103.240 -5.0964
7.937005 103.239 -5.1240
7.994520 103.238 -5.1518
8.052452 103.237 -5.1800
8.110803 103.236 -5.2089
8.169578 103.235 -5.2380
8.228777 103.235 -5.2669
8.288406 103.234 -5.2960
8.348468 103.233 -5.3254
8.408964 103.232 -5.3550
8.469899 103.231 -5.3849
8.531276 103.230 -5.4150
8.593097 103.229 -5.4454
8.655366 103.228 -5.4760
8.718086 103.227 -5.5069
8.781260 103.226 -5.5380
8.844893 103.225 -5.5694
8.908987 103.224 -5.6010
8.973545 103.223 -5.6329
9.038571 103.222 -5.6650
9.104069 103.221 -5.6974
9.170040 103.220 -5.7300
9.236490 103.219 -5.7629
9.303422 103.218 -5.7960
9.370838 103.218 -5.8294
9.438744 103.217 -5.8630
9.507140 103.216 -5.8969
9.576033 103.215 -5.9310
9.645425 103.214 -5.9653
9.715320 103.213 -6.0000
9.785721 103.212 -6.0353
9.856632 103.211 -6.0710
9.928058 103.210 -6.1069
10.000000 103.209 -6.1430
10.072464 103.208 -6.1788
10.145453 103.207 -6.2150
10.218971 103.206 -6.2517
10.293022 103.205 -6.2890
10.367610 103.204 -6.3269
10.442738 103.203 -6.3650
10.518411 103.202 -6.4029
10.594631 103.201 -6.4410
10.671404 103.200 -6.4798
10.748734 103.200 -6.5190
10.826623 103.199 -6.5583
10.905077 103.198 -6.5980
10.984100 103.197 -6.6383
11.063695 103.196 -6.6790
11.143867 103.195 -6.7199
11.224621 103.194 -6.7610
11.305959 103.193 -6.8023
11.387886 103.192 -6.8440
11.470407 103.191 -6.8863
11.553527 103.190 -6.9290
11.637249 103.189 -6.9718
11.721577 103.188 -7.0150
11.806517 103.187 -7.0588
11.892071 103.186 -7.1030
11.978246 103.185 -7.1473
12.065045 103.184 -7.1920
12.152473 103.183 -7.2372
12.240536 103.183 -7.2830
12.329235 103.182 -7.3293
12.418578 103.181 -7.3760
12.508568 103.180 -7.4228
12.599211 103.179 -7.4700
12.690510 103.178 -7.5177
12.782471 103.177 -7.5660
12.875097 103.176 -7.6148
12.968395 103.175 -7.6640
13.062370 103.174 -7.7132
13.157025 103.173 -7.7630
13.252366 103.172 -7.8137
13.348398 103.171 -7.8650
13.445127 103.170 -7.9163
13.542556 103.169 -7.9679
13.640691 103.168 -8.0202
13.739536 103.167 -8.0730
13.839099 103.167 -8.1262
13.939383 103.166 -8.1800
14.040393 103.165 -8.2342
14.142136 103.164 -8.2890
14.244616 103.163 -8.3447
14.347837 103.162 -8.4010
14.451808 103.161 -8.4572
14.556532 103.160 -8.5140
14.662014 103.159 -8.5716
14.768262 103.158 -8.6299
14.875278 103.157 -8.6886
14.983070 103.156 -8.7479
15.091644 103.155 -8.8081
15.201005 103.154 -8.8690
15.311157 103.153 -8.9301
15.422109 103.152 -8.9920
15.533863 103.151 -9.0546
15.646428 103.150 -9.1180
15.759809 103.150 -9.1816
15.874010 103.149 -9.2460
15.989040 103.148 -9.3116
16.104904 103.147 -9.3779
16.221605 103.146 -9.4446
16.339155 103.145 -9.5119
16.457554 103.144 -9.5801
16.576813 103.143 -9.6490
16.696936 103.142 -9.7181
16.817928 103.141 -9.7880
16.939798 103.140 -9.8589
17.062551 103.139 -9.9309
17.186193 103.138 -10.0041
17.310732 103.137 -10.0780
17.436172 103.136 -10.1521
17.562521 103.135 -10.2269
17.689787 103.134 -10.3029
17.817974 103.133 -10.3799
17.947090 103.133 -10.4580
18.077143 103.132 -10.5370
18.208138 103.131 -10.6165
18.340080 103.130 -10.6969
18.472980 103.129 -10.7784
18.606844 103.128 -10.8610
18.741676 103.127 -10.9444
18.877487 103.126 -11.0289
19.014280 103.125 -11.1144
19.152065 103.124 -11.2009
19.290850 103.123 -11.2884
19.430639 103.122 -11.3769
19.571442 103.121 -11.4664
19.713264 103.120 -11.5569
19.856115 103.119 -11.6483
20.000000 103.119 -11.7409
20.144928 103.118 -11.8352
20.290907 103.118 -11.9309
20.437943 103.117 -12.0280
20.586044 103.117 -12.1269
20.735220 103.117 -12.2278
20.885475 103.117 -12.3309
21.036821 103.117 -12.4367
21.189262 103.116 -12.5449
21.342808 103.116 -12.6551
21.497467 103.116 -12.7679
21.653246 103.116 -12.8835
21.810154 103.116 -13.0018
21.968201 103.116 -13.1228
22.127390 103.116 -13.2469
22.287735 103.116 -13.3742
22.449242 103.116 -13.5049
22.611917 103.116 -13.6389
22.775772 103.116 -13.7768
22.940815 103.116 -13.9188
23.107054 103.116 -14.0658
23.274498 103.116 -14.2188
23.443153 103.116 -14.3778
23.613033 103.115 -14.5430
23.784142 103.114 -14.7148
23.956491 103.113 -14.8947
24.130091 103.110 -15.0798
24.304947 103.105 -15.2686
24.481071 103.098 -15.4588
24.658470 103.090 -15.6472
24.837156 103.082 -15.8347
25.017136 103.073 -16.0211
25.198421 103.064 -16.2068
25.381020 103.054 -16.3923
25.564941 103.043 -16.5768
25.750195 103.031 -16.7592
25.936790 103.019 -16.9408
26.124741 103.007 -17.1220
26.314051 102.996 -17.3047
26.504732 102.985 -17.4916
26.696796 102.973 -17.6808
26.890253 102.959 -17.8724
27.085112 102.945 -18.0638
27.281382 102.930 -18.2505
27.479073 102.915 -18.4377
27.678198 102.903 -18.6296
27.878765 102.890 -18.8257
28.080786 102.875 -19.0279
28.284271 102.858 -19.2337
28.489231 102.842 -19.4402
28.695675 102.825 -19.6507
28.903616 102.809 -19.8684
29.113064 102.791 -20.0917
29.324028 102.771 -20.3202
29.536524 102.749 -20.5537
29.750557 102.727 -20.7925
29.966141 102.703 -21.0347
30.183289 102.676 -21.2797
30.402010 102.646 -21.5237
30.622314 102.614 -21.7640
30.844217 102.579 -21.9977
31.067726 102.541 -22.2221
31.292856 102.500 -22.4337
31.519617 102.458 -22.6271
31.748020 102.415 -22.8058
31.978081 102.373 -22.9709
32.209808 102.331 -23.1238
32.443211 102.288 -23.2659
32.678310 102.245 -23.3988
32.915108 102.204 -23.5231
33.153625 102.164 -23.6429
33.393871 102.125 -23.7632
33.635857 102.086 -23.8818
33.879597 102.045 -23.9987
34.125103 102.003 -24.1118
34.372387 101.961 -24.2189
34.621464 101.919 -24.3208
34.872345 101.876 -24.4180
35.125042 101.833 -24.5099
35.379574 101.791 -24.5955
35.635948 101.748 -24.6769
35.894180 101.705 -24.7562
36.154285 101.662 -24.8329
36.416275 101.619 -24.9071
36.680161 101.575 -24.9789
36.945961 101.531 -25.0488
37.213688 101.485 -25.1149
37.483353 101.438 -25.1766
37.754974 101.389 -25.2299
38.028561 101.339 -25.2706
38.304131 101.288 -25.2990
38.581699 101.237 -25.3141
38.861279 101.186 -25.3160
39.142883 101.135 -25.3040
39.426529 101.084 -25.2790
39.712231 101.034 -25.2408
40.000000 100.986 -25.1931
40.289856 100.939 -25.1391
40.581814 100.894 -25.0801
40.875885 100.850 -25.0185
41.172089 100.806 -24.9541
41.470440 100.763 -24.8879
41.770950 100.721 -24.8191
42.073643 100.678 -24.7478
42.378525 100.635 -24.6731
42.685616 100.592 -24.5946
42.994934 100.549 -24.5111
43.306492 100.506 -24.4221
43.620308 100.462 -24.3262
43.936401 100.418 -24.2227
44.254780 100.374 -24.1092
44.575470 100.329 -23.9836
44.898483 100.284 -23.8442
45.223835 100.240 -23.6871
45.551544 100.197 -23.5173
45.881630 100.158 -23.3381
46.214108 100.120 -23.1503
46.548996 100.082 -22.9563
46.886307 100.045 -22.7543
47.226067 100.011 -22.5404
47.568283 99.980 -22.3234
47.912983 99.954 -22.1114
48.260181 99.929 -21.9023
48.609894 99.902 -21.6992
48.962143 99.875 -21.4953
49.316940 99.849 -21.2838
49.674313 99.824 -21.0683
50.034271 99.801 -20.8499
50.396843 99.780 -20.6293
50.762039 99.759 -20.4089
51.129883 99.738 -20.1854
51.500389 99.718 -19.9567
51.873581 99.699 -19.7224
52.249481 99.682 -19.4802
52.628101 99.666 -19.2344
53.009464 99.654 -18.9888
53.393593 99.643 -18.7434
53.780506 99.633 -18.4994
54.170223 99.625 -18.2564
54.562763 99.618 -18.0137
54.958145 99.613 -17.7734
55.356396 99.610 -17.5373
55.757530 99.608 -17.3054
56.161572 99.607 -17.0788
56.568542 99.606 -16.8554
56.978462 99.606 -16.6337
57.391350 99.606 -16.4124
57.807232 99.607 -16.1902
58.226128 99.608 -15.9654
58.648056 99.610 -15.7353
59.073048 99.613 -15.5014
59.501114 99.618 -15.2638
59.932281 99.626 -15.0244
60.366577 99.636 -14.7849
60.804020 99.647 -14.5454
61.244629 99.660 -14.3063
61.688435 99.675 -14.0694
62.135452 99.693 -13.8361
62.585712 99.714 -13.6074
63.039234 99.736 -13.3847
63.496040 99.759 -13.1674
63.956161 99.785 -12.9549
64.419617 99.813 -12.7484
64.886421 99.843 -12.5492
65.356621 99.874 -12.3563
65.830215 99.907 -12.1687
66.307251 99.942 -11.9883
66.787743 99.980 -11.8166
67.271713 100.021 -11.6543
67.759193 100.063 -11.5034
68.250206 100.107 -11.3623
68.744774 100.153 -11.2284
69.242928 100.203 -11.1062
69.744690 100.256 -10.9983
70.250084 100.312 -10.9072
70.759148 100.370 -10.8352
71.271896 100.432 -10.7861
71.788361 100.497 -10.7627
72.308571 100.565 -10.7690
72.832550 100.635 -10.8098
73.360321 100.706 -10.8848
73.891922 100.777 -10.9949
74.427376 100.849 -11.1407
74.966705 100.920 -11.3239
75.509949 100.990 -11.5426
76.057121 101.058 -11.7966
76.608261 101.124 -12.0824
77.163399 101.188 -12.3964
77.722557 101.249 -12.7393
78.285767 101.308 -13.1110
78.853058 101.365 -13.5102
79.424461 101.418 -13.9354
80.000000 101.468 -14.3871
80.579712 101.516 -14.8655
81.163628 101.560 -15.3690
81.751770 101.598 -15.8975
82.344177 101.632 -16.4469
82.940880 101.661 -17.0135
83.541901 101.685 -17.5958
84.147285 101.704 -18.1913
84.757050 101.718 -18.7988
85.371231 101.726 -19.4179
85.989868 101.729 -20.0447
86.612984 101.726 -20.6761
87.240616 101.716 -21.3087
87.872803 101.701 -21.9396
88.509560 101.679 -22.5647
89.150940 101.651 -23.1814
89.796967 101.616 -23.7837
90.447670 101.575 -24.3657
91.103088 101.529 -24.9248
91.763260 101.478 -25.4570
92.428215 101.423 -25.9610
93.097992 101.365 -26.4343
93.772614 101.304 -26.8771
94.452133 101.241 -27.2877
95.136566 101.176 -27.6692
95.825966 101.112 -28.0237
96.520363 101.048 -28.3523
97.219788 100.982 -28.6567
97.924286 100.916 -28.9374
98.633881 100.851 -29.1952
99.348625 100.786 -29.4315
100.068542 100.722 -29.6480
100.793686 100.658 -29.8455
101.524078 100.595 -30.0246
102.259766 100.532 -30.1876
103.000778 100.472 -30.3373
103.747162 100.413 -30.4738
104.498962 100.354 -30.5986
105.256203 100.295 -30.7098
106.018929 100.237 -30.8048
106.787186 100.180 -30.8869
107.561012 100.126 -30.9576
108.340446 100.074 -31.0189
109.125526 100.022 -31.0734
109.916290 99.971 -31.1199
110.712791 99.922 -31.1572
111.515060 99.875 -31.1879
112.323143 99.830 -31.2145
113.137085 99.787 -31.2370
113.956924 99.745 -31.2557
114.782700 99.704 -31.2720
115.614464 99.666 -31.2863
116.452255 99.629 -31.3010
117.296112 99.593 -31.3189
118.146095 99.559 -31.3390
119.002228 99.526 -31.3601
119.864563 99.494 -31.3849
120.733154 99.464 -31.4149
121.608040 99.435 -31.4519
122.489258 99.407 -31.4999
123.376869 99.378 -31.5539
124.270905 99.347 -31.6103
125.171425 99.316 -31.6689
126.078468 99.286 -31.7277
126.992081 99.257 -31.7889
127.912323 99.227 -31.8549
128.839233 99.197 -31.9229
129.772842 99.166 -31.9906
130.713242 99.135 -32.0579
131.660431 99.104 -32.1228
132.614502 99.074 -32.1878
133.575485 99.045 -32.2542
134.543427 99.015 -32.3229
135.518387 98.985 -32.3955
136.500412 98.955 -32.4709
137.489548 98.926 -32.5480
138.485855 98.896 -32.6278
139.489380 98.867 -32.7104
140.500168 98.837 -32.7968
141.518295 98.807 -32.8888
142.543793 98.776 -32.9848
143.576721 98.744 -33.0839
144.617142 98.711 -33.1848
145.665100 98.677 -33.2858
146.720642 98.642 -33.3857
147.783844 98.606 -33.4833
148.854752 98.568 -33.5778
149.933411 98.530 -33.6685
151.019897 98.490 -33.7538
152.114243 98.449 -33.8322
153.216522 98.408 -33.9028
154.326797 98.367 -33.9644
155.445114 98.325 -34.0169
156.571533 98.283 -34.0601
157.706116 98.242 -34.0939
158.848923 98.201 -34.1178
160.000000 98.161 -34.1330
161.159424 98.122 -34.1407
162.327255 98.085 -34.1410
163.503540 98.049 -34.1324
164.688354 98.015 -34.1210
165.881760 97.985 -34.1116
167.083801 97.958 -34.1070
168.294571 97.932 -34.1113
169.514099 97.907 -34.1250
170.742462 97.884 -34.1484
171.979736 97.863 -34.1859
173.225967 97.844 -34.2430
174.481232 97.824 -34.3168
175.745605 97.802 -34.4074
177.019119 97.778 -34.5117
178.301880 97.754 -34.6268
179.593933 97.728 -34.7527
180.895340 97.701 -34.8906
182.206177 97.670 -35.0337
183.526520 97.635 -35.1759
184.856430 97.597 -35.3157
186.195984 97.560 -35.4486
187.545227 97.521 -35.5777
188.904266 97.481 -35.7050
190.273132 97.440 -35.8287
191.651932 97.398 -35.9466
193.040726 97.355 -36.0617
194.439575 97.313 -36.1754
195.848572 97.270 -36.2897
197.267761 97.227 -36.4085
198.697250 97.182 -36.5277
200.137085 97.135 -36.6446
201.587372 97.086 -36.7587
203.048157 97.037 -36.8691
204.519531 96.986 -36.9747
206.001556 96.933 -37.0747
207.494324 96.878 -37.1668
208.997925 96.822 -37.2473
210.512405 96.765 -37.3188
212.037857 96.709 -37.3826
213.574371 96.653 -37.4389
215.122025 96.595 -37.4895
216.680893 96.536 -37.5309
218.251053 96.477 -37.5593
219.832581 96.417 -37.5770
221.425583 96.358 -37.5849
223.030121 96.299 -37.5830
224.646286 96.239 -37.5716
226.274170 96.180 -37.5501
227.913849 96.122 -37.5161
229.565399 96.065 -37.4751
231.228928 96.011 -37.4314
232.904510 95.958 -37.3861
234.592224 95.906 -37.3420
236.292191 95.854 -37.2991
238.004456 95.804 -37.2580
239.729126 95.753 -37.2201
241.466309 95.702 -37.1877
243.216080 95.651 -37.1581
244.978516 95.599 -37.1291
246.753738 95.546 -37.1011
248.541809 95.494 -37.0736
250.342850 95.440 -37.0461
252.156937 95.385 -37.0186
253.984161 95.328 -36.9881
255.824646 95.270 -36.9501
257.678467 95.212 -36.9081
259.545685 95.155 -36.8652
261.426483 95.097 -36.8181
263.320862 95.035 -36.7665
265.229004 94.971 -36.7052
267.150970 94.907 -36.6272
269.086853 94.842 -36.5373
271.036774 94.779 -36.4389
273.000824 94.715 -36.3293
274.979095 94.649 -36.2075
276.971710 94.583 -36.0724
278.978760 94.519 -35.9203
281.000336 94.457 -35.7594
283.036591 94.398 -35.5973
285.087585 94.339 -35.4325
287.153442 94.280 -35.2663
289.234283 94.220 -35.0985
291.330200 94.162 -34.9290
293.441284 94.104 -34.7585
295.567688 94.045 -34.5886
297.709503 93.985 -34.4155
299.866821 93.924 -34.2365
302.039795 93.861 -34.0486
304.228485 93.797 -33.8493
306.433044 93.731 -33.6336
308.653595 93.663 -33.3958
310.890228 93.595 -33.1357
313.143066 93.530 -32.8496
315.412231 93.466 -32.5439
317.697845 93.405 -32.2237
320.000000 93.347 -31.8900
322.318848 93.291 -31.5435
324.654510 93.238 -31.1901
327.007080 93.191 -30.8342
329.376709 93.147 -30.4821
331.763519 93.106 -30.1430
334.167603 93.066 -29.8120
336.589142 93.025 -29.4882
339.028198 92.984 -29.1689
341.484924 92.944 -28.8517
343.959473 92.903 -28.5349
346.451935 92.861 -28.2170
348.962463 92.818 -27.8949
351.491211 92.775 -27.5645
354.038239 92.733 -27.2270
356.603760 92.692 -26.8823
359.187866 92.651 -26.5301
361.790680 92.611 -26.1698
364.412354 92.571 -25.8021
367.053040 92.533 -25.4270
369.712860 92.496 -25.0452
372.391968 92.460 -24.6574
375.090454 92.424 -24.2632
377.808533 92.390 -23.8626
380.546265 92.358 -23.4552
383.303864 92.327 -23.0403
386.081451 92.297 -22.6192
388.879150 92.269 -22.1923
391.697144 92.244 -21.7623
394.535522 92.222 -21.3325
397.394501 92.201 -20.9023
400.274170 92.181 -20.4724
403.174744 92.162 -20.0414
406.096313 92.145 -19.6071
409.039062 92.130 -19.1723
412.003113 92.117 -18.7394
414.988647 92.106 -18.3084
417.995850 92.096 -17.8800
421.024811 92.088 -17.4543
424.075714 92.082 -17.0311
427.148743 92.078 -16.6123
430.244049 92.076 -16.2002
433.361786 92.074 -15.7943
436.502106 92.073 -15.3956
439.665161 92.072 -15.0022
442.851166 92.072 -14.6131
446.060242 92.072 -14.2262
449.292572 92.072 -13.8397
452.548340 92.072 -13.4522
455.827698 92.073 -13.0621
459.130798 92.074 -12.6683
462.457855 92.077 -12.2688
465.809021 92.081 -11.8653
469.184448 92.087 -11.4576
472.584381 92.096 -11.0493
476.008911 92.108 -10.6433
479.458252 92.122 -10.2413
482.932617 92.138 -9.8447
486.432159 92.156 -9.4562
489.957031 92.178 -9.0787
493.507477 92.201 -8.7131
497.083618 92.225 -8.3623
500.685699 92.249 -8.0231
504.313873 92.273 -7.6935
507.968323 92.298 -7.3730
511.649292 92.324 -7.0612
515.356934 92.350 -6.7570
519.091370 92.376 -6.4594
522.852966 92.402 -6.1680
526.641724 92.429 -5.8809
530.458008 92.458 -5.6009
534.301941 92.487 -5.3308
538.173706 92.517 -5.0689
542.073547 92.546 -4.8148
546.001648 92.576 -4.5678
549.958191 92.606 -4.3265
553.943420 92.637 -4.0927
557.957520 92.668 -3.8683
562.000671 92.700 -3.6517
566.073181 92.731 -3.4428
570.175171 92.762 -3.2397
574.306885 92.792 -3.0399
578.468567 92.823 -2.8447
582.660400 92.855 -2.6543
586.882568 92.887 -2.4696
591.135376 92.919 -2.2920
595.419006 92.951 -2.1196
599.733643 92.982 -1.9514
604.079590 93.013 -1.7866
608.456970 93.045 -1.6231
612.866089 93.078 -1.4635
617.307190 93.112 -1.3102
621.780457 93.146 -1.1625
626.286133 93.180 -1.0206
630.824463 93.214 -0.8844
635.395691 93.250 -0.7530
640.000000 93.286 -0.6294
644.637695 93.323 -0.5172
649.309021 93.360 -0.4143
654.014160 93.396 -0.3205
658.753418 93.432 -0.2343
663.527039 93.468 -0.1539
668.335205 93.504 -0.0802
673.178284 93.539 -0.0139
678.056396 93.574 0.0468
682.969849 93.609 0.1037
687.918945 93.644 0.1558
692.903870 93.679 0.2039
697.924927 93.715 0.2449
702.982422 93.751 0.2755
708.076477 93.788 0.2969
713.207520 93.824 0.3090
718.375732 93.859 0.3130
723.581360 93.893 0.3097
728.824707 93.927 0.3000
734.106079 93.960 0.2853
739.425720 93.993 0.2651
744.783936 94.026 0.2395
750.180908 94.059 0.2091
755.617065 94.090 0.1752
761.092529 94.121 0.1352
766.607727 94.155 0.0884
772.162903 94.189 0.0302
777.758301 94.223 -0.0461
783.394287 94.255 -0.1347
789.071045 94.284 -0.2319
794.789001 94.311 -0.3366
800.548340 94.339 -0.4459
806.349487 94.365 -0.5616
812.192627 94.389 -0.6864
818.078125 94.411 -0.8145
824.006226 94.430 -0.9405
829.977295 94.449 -1.0665
835.991699 94.469 -1.1927
842.049622 94.488 -1.3205
848.151428 94.504 -1.4517
854.297485 94.520 -1.5855
860.488098 94.537 -1.7205
866.723572 94.553 -1.8605
873.004211 94.569 -2.0100
879.330322 94.583 -2.1654
885.702332 94.594 -2.3247
892.120483 94.604 -2.4874
898.585144 94.614 -2.6516
905.096680 94.622 -2.8194
911.655396 94.629 -2.9933
918.261597 94.634 -3.1703
924.915710 94.636 -3.3485
931.618042 94.636 -3.5273
938.368896 94.635 -3.7066
945.168762 94.632 -3.8843
952.017822 94.626 -4.0606
958.916504 94.616 -4.2294
965.865234 94.603 -4.3851
972.864319 94.588 -4.5265
979.914062 94.572 -4.6498
987.014954 94.555 -4.7566
994.167236 94.538 -4.8466
1001.371399 94.522 -4.9218
1008.627747 94.507 -4.9814
1015.936646 94.494 -5.0328
1023.298584 94.485 -5.0806
1030.713867 94.478 -5.1318
1038.182739 94.473 -5.1940
1045.705933 94.469 -5.2696
1053.283447 94.466 -5.3650
1060.916016 94.461 -5.4765
1068.603882 94.452 -5.6049
1076.347412 94.440 -5.7434
1084.147095 94.424 -5.8883
1092.003296 94.403 -6.0315
1099.916382 94.377 -6.1656
1107.886841 94.346 -6.2845
1115.915039 94.311 -6.3797
1124.001343 94.274 -6.4518
1132.146362 94.236 -6.4991
1140.350342 94.196 -6.5210
1148.613770 94.155 -6.5152
1156.937134 94.114 -6.4852
1165.320801 94.076 -6.4317
1173.765137 94.039 -6.3603
1182.270752 94.003 -6.2779
1190.838013 93.968 -6.1814
1199.467285 93.932 -6.0695
1208.159180 93.897 -5.9435
1216.913940 93.864 -5.8042
1225.732178 93.832 -5.6516
1234.614380 93.799 -5.4862
1243.560913 93.766 -5.3067
1252.572266 93.735 -5.1105
1261.648926 93.706 -4.9019
1270.791382 93.679 -4.6859
1280.000000 93.652 -4.4579
1289.275391 93.623 -4.2156
1298.618042 93.595 -3.9561
1308.028320 93.570 -3.6744
1317.506836 93.546 -3.3753
1327.054077 93.525 -3.0622
1336.670410 93.505 -2.7343
1346.356567 93.488 -2.3917
1356.112793 93.473 -2.0353
1365.939697 93.462 -1.6651
1375.837891 93.453 -1.2846
1385.807739 93.448 -0.8984
1395.849854 93.445 -0.5036
1405.964844 93.443 -0.0999
1416.152954 93.444 0.3154
1426.415039 93.447 0.7451
1436.751465 93.453 1.1903
1447.162720 93.462 1.6546
1457.649414 93.476 2.1330
1468.212158 93.497 2.6240
1478.851440 93.525 3.1201
1489.567871 93.559 3.6146
1500.361816 93.600 4.1031
1511.234131 93.648 4.5813
1522.185059 93.703 5.0420
1533.215454 93.764 5.4769
1544.325806 93.830 5.8843
1555.516602 93.899 6.2593
1566.788574 93.972 6.6026
1578.142090 94.047 6.9128
1589.578003 94.125 7.1919
1601.096680 94.202 7.4406
1612.698975 94.280 7.6611
1624.385254 94.359 7.8569
1636.156250 94.439 8.0253
1648.012451 94.520 8.1640
1659.954590 94.602 8.2756
1671.983398 94.680 8.3616
1684.099243 94.758 8.4238
1696.302856 94.836 8.4650
1708.594971 94.913 8.4840
1720.976196 94.988 8.4784
1733.447144 95.061 8.4541
1746.008423 95.129 8.4151
1758.660645 95.196 8.3642
1771.404663 95.261 8.3055
1784.240967 95.324 8.2393
1797.170288 95.384 8.1656
1810.193359 95.442 8.0893
1823.310791 95.497 8.0148
1836.523193 95.550 7.9433
1849.831421 95.602 7.8773
1863.236084 95.653 7.8173
1876.737793 95.703 7.7631
1890.337524 95.752 7.7182
1904.035645 95.800 7.6864
1917.833008 95.848 7.6661
1931.730469 95.898 7.6583
1945.728638 95.951 7.6590
1959.828125 96.006 7.6653
1974.029907 96.064 7.6750
1988.334473 96.124 7.6858
2002.742798 96.187 7.6940
2017.255493 96.253 7.6961
2031.873291 96.323 7.6881
2046.597168 96.396 7.6650
2061.427734 96.472 7.6252
2076.365479 96.549 7.5659
2091.411865 96.628 7.4854
2106.566895 96.708 7.3819
2121.832031 96.790 7.2536
2137.207764 96.872 7.0969
2152.694824 96.954 6.9148
2168.294189 97.033 6.7081
2184.006592 97.110 6.4791
2199.832764 97.185 6.2294
2215.773682 97.259 5.9611
2231.830078 97.329 5.6761
2248.002686 97.396 5.3763
2264.292725 97.461 5.0638
2280.700684 97.523 4.7404
2297.227539 97.580 4.4071
2313.874268 97.633 4.0684
2330.641602 97.681 3.7274
2347.530273 97.725 3.3894
2364.541504 97.763 3.0581
2381.676025 97.796 2.7414
2398.934570 97.822 2.4456
2416.318359 97.844 2.1801
2433.827881 97.861 1.9548
2451.464355 97.874 1.7746
2469.228760 97.885 1.6467
2487.121826 97.895 1.5742
2505.144531 97.905 1.5622
2523.297852 97.917 1.6116
2541.582764 97.933 1.7251
2560.000000 97.955 1.9021
2578.550781 97.982 2.1445
2597.236084 98.019 2.4475
2616.056641 98.068 2.8098
2635.013672 98.130 3.2222
2654.108154 98.206 3.6786
2673.340820 98.300 4.1678
2692.713135 98.413 4.6826
2712.225586 98.547 5.2046
2731.879395 98.704 5.7199
2751.675781 98.884 6.2078
2771.615479 99.088 6.6506
2791.699707 99.315 7.0255
2811.929688 99.566 7.3104
2832.305908 99.838 7.4855
2852.830078 100.128 7.5284
2873.502930 100.436 7.4238
2894.325439 100.757 7.1535
2915.298828 101.089 6.7035
2936.424316 101.429 6.0542
2957.702881 101.770 5.2042
2979.135742 102.107 4.1447
3000.723633 102.439 2.8790
3022.468262 102.762 1.4048
3044.370117 103.072 -0.2688
3066.430908 103.363 -2.1411
3088.651611 103.634 -4.1914
3111.033203 103.880 -6.4058
3133.577148 104.101 -8.7635
3156.284180 104.294 -11.2461
3179.156006 104.459 -13.8325
3202.193359 104.594 -16.5020
3225.397949 104.699 -19.2339
3248.770508 104.773 -22.0061
3272.312500 104.817 -24.8014
3296.024902 104.831 -27.6002
3319.909180 104.816 -30.3881
3343.966797 104.773 -33.1509
3368.198486 104.699 -35.8682
3392.605713 104.595 -38.5227
3417.189941 104.463 -41.0913
3441.952393 104.302 -43.5516
3466.894287 104.115 -45.8848
3492.016846 103.903 -48.0717
3517.321289 103.669 -50.0921
3542.809326 103.412 -51.9229
3568.481934 103.139 -53.5529
3594.340576 102.855 -54.9630
3620.386719 102.563 -56.1549
3646.621582 102.270 -57.1202
3673.046387 101.979 -57.8699
3699.662842 101.698 -58.4026
3726.472168 101.431 -58.7468
3753.475586 101.187 -58.9204
3780.675049 100.967 -58.9541
3808.071289 100.772 -58.8739
3835.666016 100.607 -58.7119
3863.460938 100.475 -58.4977
3891.457275 100.373 -58.2651
3919.656250 100.303 -58.0509
3948.059814 100.259 -57.8757
3976.668945 100.240 -57.7677
4005.485596 100.242 -57.7409
4034.510986 100.262 -57.8169
4063.746582 100.296 -58.0009
4093.194336 100.338 -58.3060
4122.855469 100.387 -58.7296
4152.730957 100.438 -59.2752
4182.823730 100.490 -59.9376
4213.133789 100.538 -60.7170
4243.664062 100.581 -61.6016
4274.415527 100.614 -62.5835
4305.389648 100.638 -63.6506
4336.588379 100.651 -64.7922
4368.013184 100.651 -65.9952
4399.665527 100.638 -67.2477
4431.547363 100.611 -68.5356
4463.660156 100.569 -69.8445
4496.005371 100.513 -71.1634
4528.585449 100.444 -72.4788
4561.401367 100.362 -73.7838
4594.455078 100.269 -75.0695
4627.748535 100.164 -76.3289
4661.283203 100.047 -77.5544
4695.060547 99.920 -78.7393
4729.083008 99.784 -79.8747
4763.352051 99.642 -80.9600
4797.869141 99.493 -81.9927
4832.636719 99.339 -82.9702
4867.655762 99.179 -83.8888
4902.928711 99.015 -84.7489
4938.457520 98.850 -85.5476
4974.243652 98.684 -86.2916
5010.289062 98.519 -86.9845
5046.595703 98.355 -87.6329
5083.165527 98.194 -88.2429
5120.000000 98.035 -88.8193
5157.101562 97.877 -89.3704
5194.472168 97.719 -89.8905
5232.113281 97.559 -90.3782
5270.027344 97.400 -90.8288
5308.216309 97.241 -91.2378
5346.681641 97.084 -91.6043
5385.426270 96.928 -91.9255
5424.451172 96.775 -92.2037
5463.758789 96.626 -92.4330
5503.351562 96.487 -92.6360
5543.230957 96.362 -92.8252
5583.399414 96.248 -93.0260
5623.859375 96.144 -93.2644
5664.611816 96.047 -93.5515
5705.660156 95.957 -93.9056
5747.005859 95.867 -94.3306
5788.650879 95.776 -94.8394
5830.597656 95.678 -95.4218
5872.848633 95.567 -96.0810
5915.405762 95.440 -96.7893
5958.271484 95.290 -97.5337
6001.447266 95.117 -98.2723
6044.936523 94.916 -98.9729
6088.740234 94.687 -99.5922
6132.861816 94.431 -100.0903
6177.303223 94.148 -100.4238
6222.066406 93.840 -100.5480
6267.154297 93.513 -100.4273
6312.568359 93.167 -100.0159
6358.312012 92.816 -99.3004
6404.386719 92.465 -98.2466
6450.795898 92.129 -96.8719
6497.541016 91.817 -95.1654
6544.625000 91.544 -93.1786
6592.049805 91.324 -90.9386
6639.818359 91.163 -88.5099
6687.933594 91.070 -85.9451
6736.396973 91.047 -83.3077
6785.211426 91.100 -80.6575
6834.379883 91.225 -78.0592
6883.904785 91.425 -75.5806
6933.788574 91.690 -73.2724
6984.033691 92.015 -71.1950
7034.642578 92.390 -69.3853
7085.618652 92.811 -67.8914
7136.963867 93.266 -66.7399
7188.681152 93.745 -65.9712
7240.773438 94.239 -65.5919
7293.243164 94.735 -65.6271
7346.092773 95.225 -66.0608
7399.325684 95.697 -66.8997
7452.944336 96.147 -68.1011
7506.951172 96.562 -69.6423
7561.350098 96.945 -71.4699
7616.142578 97.291 -73.5363
7671.332031 97.603 -75.8019
7726.921875 97.883 -78.2154
7782.914551 98.136 -80.7636
7839.312500 98.365 -83.4126
7896.119629 98.574 -86.1751
7953.337891 98.765 -89.0415
8010.971191 98.939 -92.0457
8069.021973 99.099 -95.2063
8127.493164 99.238 -98.5607
8186.388672 99.355 -102.1557
8245.710938 99.434 -105.9822
8305.461914 99.462 -110.0686
8365.647461 99.431 -114.3490
8426.267578 99.332 -118.8180
8487.328125 99.148 -123.3194
8548.831055 98.862 -127.7660
8610.779297 98.473 -131.9400
8673.176758 97.973 -135.6557
8736.026367 97.372 -138.7275
8799.331055 96.666 -140.9359
8863.094727 95.885 -142.1961
8927.320312 95.034 -142.3134
8992.010742 94.178 -141.4005
9057.170898 93.361 -139.4041
9122.802734 92.661 -136.6313
9188.910156 92.173 -133.2590
9255.497070 91.901 -129.6317
9322.566406 91.899 -126.0652
9390.121094 92.114 -122.8258
9458.166016 92.537 -120.2361
9526.704102 93.090 -118.4430
9595.738281 93.708 -117.7107
9665.273438 94.345 -118.0076
9735.311523 94.939 -119.4450
9805.857422 95.473 -121.8535
9876.915039 95.909 -125.1557
9948.487305 96.249 -129.1825
10020.578125 96.486 -133.7875
10093.191406 96.614 -138.8238
10166.331055 96.626 -144.1490
10240.000000 96.521 -149.6031
10314.203125 96.295 -155.0252
10388.944336 95.952 -160.2747
10464.226562 95.494 -165.1973
10540.054688 94.929 -169.6750
10616.432617 94.260 -173.5693
10693.363281 93.497 -176.7851
10770.852539 92.644 -179.2004
10848.902344 91.718 179.2380
10927.517578 90.730 178.6241
11006.703125 89.709 178.9546
11086.461914 88.674 -179.7047
11166.798828 87.670 -177.4668
11247.718750 86.733 -174.3624
11329.223633 85.906 -170.5750
11411.320312 85.234 -166.2241
11494.011719 84.744 -161.5359
11577.301758 84.484 -156.6929
11661.195312 84.436 -151.9476
11745.697266 84.619 -147.5615
11830.811523 84.971 -143.6922
11916.542969 85.445 -140.5582
12002.894531 86.004 -138.2364
12089.873047 86.610 -136.8851
12177.480469 87.219 -136.4766
12265.723633 87.775 -137.0895
12354.606445 88.267 -138.5619
12444.132812 88.662 -140.8142
12534.308594 88.962 -143.6721
12625.136719 89.157 -146.9984
12716.624023 89.243 -150.6015
12808.773438 89.209 -154.3060
12901.591797 89.063 -157.9260
12995.082031 88.804 -161.2496
13089.250000 88.454 -164.1785
13184.099609 88.025 -166.5381
13279.636719 87.542 -168.3491
13375.867188 87.027 -169.5447
13472.793945 86.504 -170.2156
13570.422852 85.996 -170.3980
13668.759766 85.518 -170.1902
13767.809570 85.092 -169.6725
13867.577148 84.722 -168.9357
13968.067383 84.421 -168.0824
14069.285156 84.173 -167.1583
14171.237305 83.972 -166.2458
14273.927734 83.810 -165.3368
14377.362305 83.674 -164.4518
14481.546875 83.567 -163.5864
14586.486328 83.486 -162.7333
14692.185547 83.436 -161.9206
14798.651367 83.424 -161.1585
14905.888672 83.448 -160.4945
15013.902344 83.509 -159.9640
15122.700195 83.604 -159.6144
15232.285156 83.732 -159.4912
15342.664062 83.884 -159.6352
15453.843750 84.055 -160.0980
15565.829102 84.231 -160.8937
15678.625000 84.401 -162.0588
15792.239258 84.553 -163.5758
15906.675781 84.677 -165.4572
16021.942383 84.762 -167.6494
16138.043945 84.794 -170.1412
16254.986328 84.764 -172.8161
16372.777344 84.656 -175.6027
16491.421875 84.472 -178.3531
16610.923828 84.206 179.0707
16731.294922 83.869 176.7713
16852.535156 83.467 174.8942
16974.656250 83.020 173.4493
17097.662109 82.543 172.5232
17221.558594 82.063 172.0308
17346.353516 81.608 171.9605
17472.052734 81.194 172.1760
17598.662109 80.852 172.5785
17726.189453 80.573 173.0414
17854.640625 80.371 173.4241
17984.021484 80.220 173.6692
18114.341797 80.107 173.6610
18245.605469 80.011 173.4349
18377.820312 79.905 172.9611
18510.994141 79.783 172.3221
18645.132812 79.629 171.5660
18780.242188 79.444 170.7683
18916.332031 79.224 170.0065
19053.408203 78.975 169.3235
19191.476562 78.702 168.7899
19330.546875 78.416 168.4007
19470.623047 78.127 168.1851
19611.714844 77.841 168.1100
19753.830078 77.566 168.1627
19896.974609 77.306 168.3109
