* Measurement data measured by REW V5.20.13
* Source: C:\Users\kurin\Desktop\Targets and Curves\Resolve\Img\Files\RED GRAS Wide Bore_SPL.txt
* Format: Comma/Tab/Space delimited data
* Dated: Aug 15, 2023 12:20:48 AM
* REW Settings:
*  C-weighting compensation: Off
*  Target level: 75.0 dB
* Note: ; Measurement imported from C:\Users\kurin\Desktop\Targets and Curves\Resolve\Img\Files\RED GRAS Wide Bore_SPL.txt Format: Comma/Tab/Space delimited data 623 values loaded, 5 Hz to 39,792 Hz log spaced 
* Measurement: RED GRAS Wide Bore_SPL
* Smoothing: 1/48 octave
* Frequency Step: 1/96 octave
* Start Frequency: 5.000 Hz
*
* Freq(Hz) SPL(dB) Phase(degrees)
5.000000 87.779 2.0000
5.036232 87.780 1.9928
5.072727 87.782 1.9850
5.109486 87.783 1.9762
5.146511 87.785 1.9660
5.183805 87.787 1.9536
5.221369 87.790 1.9400
5.259205 87.792 1.9259
5.297316 87.795 1.9110
5.335702 87.798 1.8948
5.374367 87.801 1.8780
5.413311 87.804 1.8615
5.452538 87.807 1.8450
5.492050 87.809 1.8286
5.531847 87.812 1.8120
5.571934 87.815 1.7951
5.612310 87.818 1.7780
5.652979 87.821 1.7611
5.693943 87.824 1.7440
5.735204 87.827 1.7266
5.776763 87.830 1.7090
5.818624 87.832 1.6910
5.860788 87.835 1.6730
5.903258 87.838 1.6556
5.946035 87.841 1.6380
5.989123 87.844 1.6196
6.032523 87.847 1.6010
6.076237 87.849 1.5825
6.120268 87.852 1.5640
6.164618 87.855 1.5456
6.209289 87.858 1.5270
6.254284 87.861 1.5081
6.299605 87.864 1.4890
6.345255 87.867 1.4696
6.391235 87.870 1.4500
6.437549 87.872 1.4306
6.484198 87.875 1.4110
6.531185 87.878 1.3911
6.578513 87.881 1.3710
6.626183 87.884 1.3511
6.674199 87.887 1.3310
6.722563 87.890 1.3106
6.771278 87.893 1.2900
6.820345 87.896 1.2691
6.869768 87.898 1.2480
6.919549 87.901 1.2271
6.969691 87.904 1.2060
7.020196 87.907 1.1846
7.071068 87.910 1.1630
7.122308 87.913 1.1416
7.173919 87.916 1.1200
7.225904 87.918 1.0981
7.278266 87.921 1.0760
7.331007 87.924 1.0536
7.384131 87.927 1.0310
7.437639 87.930 1.0081
7.491535 87.933 0.9850
7.545822 87.936 0.9621
7.600502 87.938 0.9390
7.655579 87.941 0.9156
7.711054 87.944 0.8920
7.766932 87.947 0.8686
7.823214 87.950 0.8450
7.879904 87.953 0.8211
7.937005 87.956 0.7970
7.994520 87.958 0.7726
8.052452 87.961 0.7480
8.110803 87.964 0.7231
8.169578 87.967 0.6980
8.228777 87.970 0.6726
8.288406 87.973 0.6470
8.348468 87.976 0.6216
8.408964 87.979 0.5960
8.469899 87.981 0.5701
8.531276 87.984 0.5440
8.593097 87.987 0.5176
8.655366 87.990 0.4910
8.718086 87.993 0.4646
8.781260 87.996 0.4380
8.844893 87.999 0.4106
8.908987 88.002 0.3830
8.973545 88.005 0.3556
9.038571 88.007 0.3280
9.104069 88.010 0.3001
9.170040 88.013 0.2720
9.236490 88.016 0.2436
9.303422 88.019 0.2150
9.370838 88.021 0.1861
9.438744 88.024 0.1570
9.507140 88.027 0.1276
9.576033 88.030 0.0980
9.645425 88.033 0.0681
9.715320 88.036 0.0380
9.785721 88.039 0.0076
9.856632 88.042 -0.0230
9.928058 88.044 -0.0534
10.000000 88.047 -0.0840
10.072464 88.050 -0.1153
10.145453 88.053 -0.1470
10.218971 88.056 -0.1784
10.293022 88.059 -0.2100
10.367610 88.062 -0.2424
10.442738 88.065 -0.2750
10.518411 88.068 -0.3074
10.594631 88.070 -0.3400
10.671404 88.073 -0.3734
10.748734 88.076 -0.4070
10.826623 88.079 -0.4404
10.905077 88.082 -0.4740
10.984100 88.085 -0.5083
11.063695 88.088 -0.5430
11.143867 88.090 -0.5779
11.224621 88.093 -0.6130
11.305959 88.096 -0.6484
11.387886 88.099 -0.6840
11.470407 88.102 -0.7199
11.553527 88.105 -0.7560
11.637249 88.108 -0.7924
11.721577 88.111 -0.8290
11.806517 88.113 -0.8658
11.892071 88.116 -0.9030
11.978246 88.119 -0.9409
12.065045 88.122 -0.9790
12.152473 88.125 -1.0169
12.240536 88.128 -1.0550
12.329235 88.131 -1.0938
12.418578 88.133 -1.1330
12.508568 88.136 -1.1723
12.599211 88.139 -1.2120
12.690510 88.142 -1.2523
12.782471 88.145 -1.2930
12.875097 88.148 -1.3338
12.968395 88.151 -1.3750
13.062370 88.153 -1.4164
13.157025 88.156 -1.4580
13.252366 88.159 -1.4998
13.348398 88.162 -1.5420
13.445127 88.165 -1.5848
13.542556 88.168 -1.6279
13.640691 88.171 -1.6713
13.739536 88.174 -1.7150
13.839099 88.176 -1.7593
13.939383 88.179 -1.8040
14.040393 88.182 -1.8488
14.142136 88.185 -1.8940
14.244616 88.188 -1.9398
14.347837 88.191 -1.9860
14.451808 88.194 -2.0324
14.556532 88.197 -2.0790
14.662014 88.200 -2.1258
14.768262 88.202 -2.1729
14.875278 88.205 -2.2207
14.983070 88.208 -2.2689
15.091644 88.211 -2.3178
15.201005 88.214 -2.3670
15.311157 88.216 -2.4163
15.422109 88.219 -2.4660
15.533863 88.222 -2.5162
15.646428 88.225 -2.5670
15.759809 88.228 -2.6183
15.874010 88.231 -2.6700
15.989040 88.234 -2.7218
16.104904 88.237 -2.7740
16.221605 88.239 -2.8268
16.339155 88.242 -2.8799
16.457554 88.245 -2.9333
16.576813 88.248 -2.9870
16.696936 88.251 -3.0412
16.817928 88.254 -3.0960
16.939798 88.257 -3.1513
17.062551 88.260 -3.2069
17.186193 88.262 -3.2628
17.310732 88.265 -3.3190
17.436172 88.268 -3.3753
17.562521 88.271 -3.4320
17.689787 88.274 -3.4893
17.817974 88.277 -3.5469
17.947090 88.280 -3.6049
18.077143 88.283 -3.6630
18.208138 88.285 -3.7209
18.340080 88.288 -3.7789
18.472980 88.291 -3.8375
18.606844 88.294 -3.8960
18.741676 88.297 -3.9537
18.877487 88.300 -4.0109
19.014280 88.303 -4.0679
19.152065 88.306 -4.1239
19.290850 88.309 -4.1781
19.430639 88.312 -4.2310
19.571442 88.316 -4.2827
19.713264 88.320 -4.3339
19.856115 88.325 -4.3851
20.000000 88.331 -4.4369
20.144928 88.337 -4.4899
20.290907 88.344 -4.5449
20.437943 88.352 -4.6035
20.586044 88.361 -4.6650
20.735220 88.370 -4.7279
20.885475 88.380 -4.7959
21.036821 88.392 -4.8711
21.189262 88.405 -4.9569
21.342808 88.419 -5.0584
21.497467 88.432 -5.1728
21.653246 88.444 -5.2993
21.810154 88.455 -5.4378
21.968201 88.466 -5.5889
22.127390 88.475 -5.7498
22.287735 88.480 -5.9208
22.449242 88.483 -6.0939
22.611917 88.482 -6.2617
22.775772 88.479 -6.4228
22.940815 88.475 -6.5730
23.107054 88.470 -6.7138
23.274498 88.464 -6.8451
23.443153 88.459 -6.9678
23.613033 88.455 -7.0819
23.784142 88.451 -7.1909
23.956491 88.449 -7.2980
24.130091 88.447 -7.4049
24.304947 88.446 -7.5141
24.481071 88.446 -7.6259
24.658470 88.446 -7.7410
24.837156 88.446 -7.8598
25.017136 88.446 -7.9828
25.198421 88.446 -8.1099
25.381020 88.445 -8.2411
25.564941 88.444 -8.3769
25.750195 88.443 -8.5182
25.936790 88.441 -8.6628
26.124741 88.437 -8.8099
26.314051 88.432 -8.9568
26.504732 88.426 -9.1015
26.696796 88.418 -9.2418
26.890253 88.408 -9.3755
27.085112 88.398 -9.5009
27.281382 88.387 -9.6152
27.479073 88.377 -9.7199
27.678198 88.368 -9.8136
27.878765 88.361 -9.9019
28.080786 88.357 -9.9888
28.284271 88.354 -10.0779
28.489231 88.353 -10.1736
28.695675 88.352 -10.2769
28.903616 88.352 -10.3904
29.113064 88.352 -10.5128
29.324028 88.352 -10.6440
29.536524 88.351 -10.7828
29.750557 88.350 -10.9287
29.966141 88.347 -11.0798
30.183289 88.343 -11.2348
30.402010 88.337 -11.3918
30.622314 88.331 -11.5484
30.844217 88.324 -11.7058
31.067726 88.317 -11.8645
31.292856 88.309 -12.0238
31.519617 88.299 -12.1835
31.748020 88.288 -12.3418
31.978081 88.276 -12.4964
32.209808 88.264 -12.6478
32.443211 88.251 -12.7963
32.678310 88.238 -12.9408
32.915108 88.224 -13.0806
33.153625 88.209 -13.2148
33.393871 88.194 -13.3415
33.635857 88.179 -13.4628
33.879597 88.165 -13.5798
34.125103 88.152 -13.6938
34.372387 88.139 -13.8066
34.621464 88.127 -13.9188
34.872345 88.116 -14.0313
35.125042 88.105 -14.1459
35.379574 88.095 -14.2639
35.635948 88.085 -14.3868
35.894180 88.076 -14.5165
36.154285 88.067 -14.6528
36.416275 88.057 -14.7974
36.680161 88.045 -14.9468
36.945961 88.032 -15.0983
37.213688 88.017 -15.2508
37.483353 88.001 -15.4033
37.754974 87.984 -15.5528
38.028561 87.965 -15.6963
38.304131 87.944 -15.8318
38.581699 87.923 -15.9551
38.861279 87.902 -16.0698
39.142883 87.883 -16.1773
39.426529 87.864 -16.2799
39.712231 87.846 -16.3798
40.000000 87.828 -16.4789
40.289856 87.812 -16.5788
40.581814 87.796 -16.6818
40.875885 87.781 -16.7915
41.172089 87.766 -16.9058
41.470440 87.749 -17.0257
41.770950 87.731 -17.1458
42.073643 87.711 -17.2616
42.378525 87.689 -17.3709
42.685616 87.667 -17.4691
42.994934 87.645 -17.5579
43.306492 87.623 -17.6362
43.620308 87.603 -17.7069
43.936401 87.585 -17.7703
44.254780 87.569 -17.8329
44.575470 87.556 -17.9005
44.898483 87.544 -17.9759
45.223835 87.533 -18.0649
45.551544 87.522 -18.1639
45.881630 87.510 -18.2719
46.214108 87.497 -18.3868
46.548996 87.483 -18.5062
46.886307 87.468 -18.6298
47.226067 87.452 -18.7578
47.568283 87.435 -18.8868
47.912983 87.416 -19.0144
48.260181 87.395 -19.1378
48.609894 87.373 -19.2527
48.962143 87.351 -19.3608
49.316940 87.329 -19.4613
49.674313 87.308 -19.5578
50.034271 87.288 -19.6545
50.396843 87.269 -19.7499
50.762039 87.248 -19.8433
51.129883 87.228 -19.9358
51.500389 87.209 -20.0275
51.873581 87.191 -20.1208
52.249481 87.174 -20.2191
52.628101 87.156 -20.3208
53.009464 87.138 -20.4258
53.393593 87.119 -20.5338
53.780506 87.101 -20.6443
54.170223 87.082 -20.7588
54.562763 87.063 -20.8807
54.958145 87.043 -21.0048
55.356396 87.020 -21.1268
55.757530 86.996 -21.2478
56.161572 86.973 -21.3675
56.568542 86.950 -21.4858
56.978462 86.924 -21.6043
57.391350 86.897 -21.7178
57.807232 86.869 -21.8201
58.226128 86.841 -21.9158
58.648056 86.815 -22.0074
59.073048 86.789 -22.0959
59.501114 86.763 -22.1839
59.932281 86.736 -22.2698
60.366577 86.709 -22.3524
60.804020 86.683 -22.4339
61.244629 86.658 -22.5162
61.688435 86.633 -22.5989
62.135452 86.607 -22.6826
62.585712 86.580 -22.7659
63.039234 86.554 -22.8469
63.496040 86.528 -22.9269
63.956161 86.501 -23.0063
64.419617 86.474 -23.0849
64.886421 86.447 -23.1616
65.356621 86.421 -23.2389
65.830215 86.395 -23.3198
66.307251 86.369 -23.4008
66.787743 86.340 -23.4795
67.271713 86.310 -23.5549
67.759193 86.282 -23.6238
68.250206 86.254 -23.6909
68.744774 86.227 -23.7609
69.242928 86.200 -23.8309
69.744690 86.171 -23.8995
70.250084 86.142 -23.9669
70.759148 86.114 -24.0315
71.271896 86.087 -24.0969
71.788361 86.059 -24.1667
72.308571 86.031 -24.2389
72.832550 86.002 -24.3127
73.360321 85.973 -24.3869
73.891922 85.943 -24.4601
74.427376 85.912 -24.5319
74.966705 85.881 -24.6013
75.509949 85.849 -24.6689
76.057121 85.817 -24.7352
76.608261 85.785 -24.7989
77.163399 85.751 -24.8589
77.722557 85.717 -24.9149
78.285767 85.683 -24.9653
78.853058 85.649 -25.0129
79.424461 85.616 -25.0607
80.000000 85.583 -25.1059
80.579712 85.547 -25.1470
81.163628 85.511 -25.1839
81.751770 85.476 -25.2151
82.344177 85.442 -25.2429
82.940880 85.408 -25.2698
83.541901 85.373 -25.2940
84.147285 85.338 -25.3140
84.757050 85.303 -25.3310
85.371231 85.269 -25.3443
85.989868 85.236 -25.3570
86.612984 85.203 -25.3722
87.240616 85.170 -25.3880
87.872803 85.136 -25.4032
88.509560 85.102 -25.4180
89.150940 85.068 -25.4327
89.796967 85.034 -25.4460
90.447670 84.999 -25.4564
91.103088 84.963 -25.4640
91.763260 84.928 -25.4684
92.428215 84.892 -25.4700
93.097992 84.857 -25.4693
93.772614 84.821 -25.4660
94.452133 84.786 -25.4595
95.136566 84.750 -25.4510
95.825966 84.715 -25.4418
96.520363 84.680 -25.4320
97.219788 84.645 -25.4225
97.924286 84.609 -25.4120
98.633881 84.573 -25.4003
99.348625 84.537 -25.3860
100.068542 84.500 -25.3682
100.793686 84.462 -25.3461
101.524078 84.425 -25.3178
102.259766 84.387 -25.2851
103.000778 84.350 -25.2486
103.747162 84.313 -25.2091
104.498962 84.276 -25.1672
105.256203 84.240 -25.1241
106.018929 84.205 -25.0812
106.787186 84.169 -25.0381
107.561012 84.133 -24.9951
108.340446 84.096 -24.9511
109.125526 84.059 -24.9051
109.916290 84.022 -24.8571
110.712791 83.985 -24.8074
111.515060 83.947 -24.7541
112.323143 83.908 -24.6959
113.137085 83.868 -24.6311
113.956924 83.828 -24.5564
114.782700 83.789 -24.4752
115.614464 83.751 -24.3899
116.452255 83.714 -24.3002
117.296112 83.675 -24.2063
118.146095 83.637 -24.1082
119.002228 83.601 -24.0048
119.864563 83.565 -23.8993
120.733154 83.531 -23.7953
121.608040 83.496 -23.6902
122.489258 83.460 -23.5824
123.376869 83.425 -23.4733
124.270905 83.391 -23.3630
125.171425 83.358 -23.2532
126.078468 83.325 -23.1462
126.992081 83.291 -23.0402
127.912323 83.257 -22.9351
128.839233 83.222 -22.8282
129.772842 83.186 -22.7179
130.713242 83.148 -22.6012
131.660431 83.110 -22.4743
132.614502 83.072 -22.3384
133.575485 83.034 -22.1940
134.543427 82.997 -22.0403
135.518387 82.960 -21.8756
136.500412 82.924 -21.7033
137.489548 82.891 -21.5249
138.485855 82.859 -21.3445
139.489380 82.829 -21.1672
140.500168 82.800 -20.9914
141.518295 82.770 -20.8172
142.543793 82.740 -20.6434
143.576721 82.712 -20.4692
144.617142 82.683 -20.2944
145.665100 82.654 -20.1199
146.720642 82.624 -19.9415
147.783844 82.594 -19.7551
148.854752 82.564 -19.5615
149.933411 82.535 -19.3583
151.019897 82.508 -19.1515
152.114243 82.484 -18.9464
153.216522 82.461 -18.7426
154.326797 82.437 -18.5428
155.445114 82.413 -18.3435
156.571533 82.389 -18.1411
157.706116 82.366 -17.9375
158.848923 82.344 -17.7328
160.000000 82.323 -17.5275
161.159424 82.301 -17.3229
162.327255 82.280 -17.1165
163.503540 82.259 -16.9061
164.688354 82.238 -16.6925
165.881760 82.218 -16.4745
167.083801 82.199 -16.2556
168.294571 82.182 -16.0392
169.514099 82.166 -15.8245
170.742462 82.149 -15.6127
171.979736 82.133 -15.4016
173.225967 82.117 -15.1894
174.481232 82.102 -14.9765
175.745605 82.086 -14.7628
177.019119 82.071 -14.5475
178.301880 82.057 -14.3292
179.593933 82.043 -14.1096
180.895340 82.030 -13.8895
182.206177 82.018 -13.6695
183.526520 82.007 -13.4506
184.856430 81.996 -13.2315
186.195984 81.985 -13.0108
187.545227 81.975 -12.7905
188.904266 81.968 -12.5716
190.273132 81.961 -12.3555
191.651932 81.954 -12.1443
193.040726 81.948 -11.9376
194.439575 81.943 -11.7350
195.848572 81.938 -11.5385
197.267761 81.934 -11.3511
198.697250 81.929 -11.1694
200.137085 81.922 -10.9935
201.587372 81.914 -10.8174
203.048157 81.904 -10.6354
204.519531 81.893 -10.4466
206.001556 81.882 -10.2482
207.494324 81.870 -10.0395
208.997925 81.859 -9.8184
210.512405 81.849 -9.5856
212.037857 81.841 -9.3388
213.574371 81.835 -9.0846
215.122025 81.834 -8.8268
216.680893 81.836 -8.5717
218.251053 81.842 -8.3261
219.832581 81.850 -8.0927
221.425583 81.860 -7.8768
223.030121 81.872 -7.6775
224.646286 81.884 -7.4961
226.274170 81.895 -7.3304
227.913849 81.906 -7.1796
229.565399 81.915 -7.0413
231.228928 81.922 -6.9147
232.904510 81.928 -6.7944
234.592224 81.932 -6.6752
236.292191 81.934 -6.5563
238.004456 81.935 -6.4348
239.729126 81.935 -6.3113
241.466309 81.935 -6.1857
243.216080 81.935 -6.0583
244.978516 81.935 -5.9295
246.753738 81.935 -5.8004
248.541809 81.935 -5.6721
250.342850 81.935 -5.5454
252.156937 81.935 -5.4212
253.984161 81.934 -5.2993
255.824646 81.933 -5.1806
257.678467 81.930 -5.0623
259.545685 81.925 -4.9437
261.426483 81.919 -4.8203
263.320862 81.910 -4.6884
265.229004 81.900 -4.5454
267.150970 81.889 -4.3880
269.086853 81.878 -4.2155
271.036774 81.867 -4.0266
273.000824 81.856 -3.8206
274.979095 81.846 -3.5962
276.971710 81.837 -3.3548
278.978760 81.832 -3.0961
281.000336 81.829 -2.8238
283.036591 81.829 -2.5406
285.087585 81.832 -2.2489
287.153442 81.840 -1.9496
289.234283 81.853 -1.6498
291.330200 81.871 -1.3557
293.441284 81.894 -1.0708
295.567688 81.920 -0.7988
297.709503 81.950 -0.5446
299.866821 81.985 -0.3121
302.039795 82.023 -0.1076
304.228485 82.064 0.0597
306.433044 82.105 0.1947
308.653595 82.144 0.2975
310.890228 82.181 0.3738
313.143066 82.217 0.4295
315.412231 82.251 0.4639
317.697845 82.283 0.4772
320.000000 82.313 0.4730
322.318848 82.339 0.4540
324.654510 82.363 0.4241
327.007080 82.384 0.3884
329.376709 82.402 0.3471
331.763519 82.418 0.3021
334.167603 82.431 0.2542
336.589142 82.442 0.2033
339.028198 82.451 0.1531
341.484924 82.456 0.1069
343.959473 82.458 0.0661
346.451935 82.459 0.0328
348.962463 82.458 0.0081
351.491211 82.455 -0.0067
354.038239 82.451 -0.0100
356.603760 82.446 0.0001
359.187866 82.440 0.0229
361.790680 82.434 0.0584
364.412354 82.428 0.1058
367.053040 82.423 0.1646
369.712860 82.419 0.2338
372.391968 82.416 0.3142
375.090454 82.414 0.4007
377.808533 82.416 0.4898
380.546265 82.419 0.5777
383.303864 82.423 0.6593
386.081451 82.428 0.7358
388.879150 82.434 0.8065
391.697144 82.440 0.8718
394.535522 82.446 0.9315
397.394501 82.451 0.9868
400.274170 82.456 1.0381
403.174744 82.460 1.0878
406.096313 82.463 1.1389
409.039062 82.466 1.1908
412.003113 82.469 1.2445
414.988647 82.473 1.2988
417.995850 82.477 1.3537
421.024811 82.481 1.4078
424.075714 82.485 1.4603
427.148743 82.490 1.5098
430.244049 82.495 1.5549
433.361786 82.500 1.5959
436.502106 82.504 1.6324
439.665161 82.508 1.6649
442.851166 82.512 1.6938
446.060242 82.515 1.7189
449.292572 82.517 1.7401
452.548340 82.519 1.7579
455.827698 82.519 1.7730
459.130798 82.518 1.7860
462.457855 82.516 1.7968
465.809021 82.513 1.8090
469.184448 82.506 1.8245
472.584381 82.497 1.8479
476.008911 82.486 1.8846
479.458252 82.475 1.9338
482.932617 82.464 1.9967
486.432159 82.452 2.0727
489.957031 82.441 2.1626
493.507477 82.430 2.2647
497.083618 82.421 2.3791
500.685699 82.414 2.5006
504.313873 82.410 2.6244
507.968323 82.407 2.7486
511.649292 82.406 2.8694
515.356934 82.405 2.9876
519.091370 82.405 3.1028
522.852966 82.405 3.2156
526.641724 82.405 3.3263
530.458008 82.405 3.4356
534.301941 82.405 3.5443
538.173706 82.405 3.6526
542.073547 82.405 3.7614
546.001648 82.405 3.8706
549.958191 82.405 3.9806
553.943420 82.405 4.0916
557.957520 82.405 4.2044
562.000671 82.405 4.3186
566.073181 82.405 4.4341
570.175171 82.405 4.5516
574.306885 82.405 4.6717
578.468567 82.405 4.7946
582.660400 82.405 4.9207
586.882568 82.405 5.0505
591.135376 82.405 5.1845
595.419006 82.406 5.3225
599.733643 82.407 5.4648
604.079590 82.410 5.6105
608.456970 82.414 5.7595
612.866089 82.419 5.9095
617.307190 82.425 6.0581
621.780457 82.432 6.2045
626.286133 82.441 6.3476
630.824463 82.450 6.4856
635.395691 82.460 6.6159
640.000000 82.470 6.7396
644.637695 82.480 6.8555
649.309021 82.489 6.9666
654.014160 82.497 7.0747
658.753418 82.504 7.1816
663.527039 82.510 7.2894
668.335205 82.516 7.3996
673.178284 82.520 7.5147
678.056396 82.524 7.6346
682.969849 82.529 7.7608
687.918945 82.534 7.8905
692.903870 82.540 8.0210
697.924927 82.546 8.1535
702.982422 82.551 8.2885
708.076477 82.557 8.4255
713.207520 82.563 8.5641
718.375732 82.570 8.7055
723.581360 82.576 8.8502
728.824707 82.581 8.9995
734.106079 82.587 9.1552
739.425720 82.593 9.3164
744.783936 82.600 9.4829
750.180908 82.609 9.6534
755.617065 82.618 9.8272
761.092529 82.629 10.0024
766.607727 82.641 10.1766
772.162903 82.655 10.3494
777.758301 82.669 10.5193
783.394287 82.683 10.6874
789.071045 82.697 10.8544
794.789001 82.712 11.0204
800.548340 82.727 11.1851
806.349487 82.742 11.3504
812.192627 82.757 11.5184
818.078125 82.772 11.6884
824.006226 82.789 11.8608
829.977295 82.806 12.0344
835.991699 82.824 12.2084
842.049622 82.843 12.3814
848.151428 82.863 12.5513
854.297485 82.884 12.7194
860.488098 82.904 12.8858
866.723572 82.924 13.0514
873.004211 82.945 13.2165
879.330322 82.966 13.3824
885.702332 82.986 13.5497
892.120483 83.006 13.7204
898.585144 83.027 13.8973
905.096680 83.049 14.0793
911.655396 83.071 14.2664
918.261597 83.095 14.4573
924.915710 83.121 14.6519
931.618042 83.149 14.8463
938.368896 83.179 15.0367
945.168762 83.211 15.2223
952.017822 83.244 15.4001
958.916504 83.277 15.5723
965.865234 83.310 15.7396
972.864319 83.343 15.9034
979.914062 83.377 16.0654
987.014954 83.412 16.2264
994.167236 83.447 16.3880
1001.371399 83.482 16.5494
1008.627747 83.519 16.7104
1015.936646 83.557 16.8703
1023.298584 83.596 17.0295
1030.713867 83.637 17.1855
1038.182739 83.680 17.3368
1045.705933 83.725 17.4814
1053.283447 83.770 17.6161
1060.916016 83.816 17.7425
1068.603882 83.863 17.8613
1076.347412 83.911 17.9716
1084.147095 83.960 18.0725
1092.003296 84.009 18.1637
1099.916382 84.058 18.2440
1107.886841 84.107 18.3157
1115.915039 84.156 18.3809
1124.001343 84.206 18.4388
1132.146362 84.255 18.4885
1140.350342 84.304 18.5318
1148.613770 84.352 18.5700
1156.937134 84.400 18.6039
1165.320801 84.448 18.6352
1173.765137 84.497 18.6619
1182.270752 84.546 18.6825
1190.838013 84.595 18.6960
1199.467285 84.644 18.7002
1208.159180 84.694 18.6970
1216.913940 84.742 18.6862
1225.732178 84.789 18.6711
1234.614380 84.835 18.6555
1243.560913 84.880 18.6381
1252.572266 84.926 18.6178
1261.648926 84.971 18.5971
1270.791382 85.014 18.5778
1280.000000 85.057 18.5611
1289.275391 85.100 18.5500
1298.618042 85.144 18.5410
1308.028320 85.189 18.5312
1317.506836 85.236 18.5210
1327.054077 85.282 18.5094
1336.670410 85.328 18.4980
1346.356567 85.374 18.4892
1356.112793 85.422 18.4810
1365.939697 85.471 18.4727
1375.837891 85.521 18.4640
1385.807739 85.572 18.4559
1395.849854 85.625 18.4441
1405.964844 85.681 18.4263
1416.152954 85.740 18.3981
1426.415039 85.799 18.3533
1436.751465 85.860 18.2943
1447.162720 85.920 18.2217
1457.649414 85.981 18.1354
1468.212158 86.042 18.0357
1478.851440 86.103 17.9215
1489.567871 86.163 17.7899
1500.361816 86.223 17.6466
1511.234131 86.279 17.4965
1522.185059 86.335 17.3387
1533.215454 86.392 17.1746
1544.325806 86.448 17.0028
1555.516602 86.502 16.8217
1566.788574 86.555 16.6338
1578.142090 86.607 16.4409
1589.578003 86.659 16.2428
1601.096680 86.709 16.0397
1612.698975 86.758 15.8329
1624.385254 86.806 15.6236
1636.156250 86.853 15.4129
1648.012451 86.898 15.2022
1659.954590 86.943 14.9918
1671.983398 86.987 14.7831
1684.099243 87.032 14.5739
1696.302856 87.077 14.3617
1708.594971 87.121 14.1480
1720.976196 87.163 13.9321
1733.447144 87.205 13.7169
1746.008423 87.246 13.5053
1758.660645 87.286 13.2959
1771.404663 87.327 13.0875
1784.240967 87.367 12.8818
1797.170288 87.406 12.6796
1810.193359 87.445 12.4828
1823.310791 87.484 12.2952
1836.523193 87.525 12.1127
1849.831421 87.567 11.9326
1863.236084 87.611 11.7538
1876.737793 87.655 11.5752
1890.337524 87.701 11.3948
1904.035645 87.749 11.2114
1917.833008 87.799 11.0218
1931.730469 87.850 10.8215
1945.728638 87.901 10.6129
1959.828125 87.952 10.3974
1974.029907 88.003 10.1740
1988.334473 88.055 9.9414
2002.742798 88.108 9.7010
2017.255493 88.159 9.4526
2031.873291 88.209 9.2000
2046.597168 88.259 8.9477
2061.427734 88.309 8.6941
2076.365479 88.360 8.4394
2091.411865 88.413 8.1821
2106.566895 88.465 7.9210
2121.832031 88.519 7.6561
2137.207764 88.574 7.3886
2152.694824 88.630 7.1141
2168.294189 88.688 6.8294
2184.006592 88.748 6.5324
2199.832764 88.808 6.2194
2215.773682 88.869 5.8924
2231.830078 88.928 5.5515
2248.002686 88.988 5.1985
2264.292725 89.047 4.8346
2280.700684 89.106 4.4606
2297.227539 89.164 4.0772
2313.874268 89.222 3.6856
2330.641602 89.278 3.2873
2347.530273 89.335 2.8828
2364.541504 89.391 2.4735
2381.676025 89.448 2.0579
2398.934570 89.505 1.6358
2416.318359 89.564 1.2050
2433.827881 89.623 0.7631
2451.464355 89.682 0.3099
2469.228760 89.741 -0.1545
2487.121826 89.801 -0.6329
2505.144531 89.862 -1.1277
2523.297852 89.924 -1.6396
2541.582764 89.984 -2.1711
2560.000000 90.044 -2.7195
2578.550781 90.102 -3.2831
2597.236084 90.159 -3.8623
2616.056641 90.215 -4.4576
2635.013672 90.271 -5.0674
2654.108154 90.324 -5.6907
2673.340820 90.375 -6.3252
2692.713135 90.425 -6.9675
2712.225586 90.474 -7.6199
2731.879395 90.522 -8.2834
2751.675781 90.570 -8.9588
2771.615479 90.616 -9.6473
2791.699707 90.661 -10.3489
2811.929688 90.705 -11.0636
2832.305908 90.749 -11.7925
2852.830078 90.791 -12.5365
2873.502930 90.831 -13.2957
2894.325439 90.869 -14.0702
2915.298828 90.906 -14.8604
2936.424316 90.940 -15.6677
2957.702881 90.972 -16.4884
2979.135742 90.999 -17.3195
3000.723633 91.023 -18.1603
3022.468262 91.046 -19.0089
3044.370117 91.067 -19.8660
3066.430908 91.084 -20.7331
3088.651611 91.098 -21.6071
3111.033203 91.109 -22.4851
3133.577148 91.117 -23.3678
3156.284180 91.124 -24.2540
3179.156006 91.128 -25.1467
3202.193359 91.131 -26.0498
3225.397949 91.130 -26.9597
3248.770508 91.125 -27.8749
3272.312500 91.116 -28.7929
3296.024902 91.105 -29.7097
3319.909180 91.091 -30.6277
3343.966797 91.074 -31.5488
3368.198486 91.054 -32.4706
3392.605713 91.031 -33.3920
3417.189941 91.004 -34.3118
3441.952393 90.975 -35.2283
3466.894287 90.942 -36.1419
3492.016846 90.908 -37.0525
3517.321289 90.870 -37.9598
3542.809326 90.830 -38.8638
3568.481934 90.786 -39.7638
3594.340576 90.740 -40.6601
3620.386719 90.691 -41.5508
3646.621582 90.639 -42.4337
3673.046387 90.584 -43.3098
3699.662842 90.528 -44.1795
3726.472168 90.468 -45.0420
3753.475586 90.406 -45.8974
3780.675049 90.340 -46.7442
3808.071289 90.273 -47.5812
3835.666016 90.202 -48.4081
3863.460938 90.129 -49.2250
3891.457275 90.053 -50.0302
3919.656250 89.975 -50.8222
3948.059814 89.894 -51.6004
3976.668945 89.812 -52.3636
4005.485596 89.728 -53.1124
4034.510986 89.642 -53.8475
4063.746582 89.553 -54.5676
4093.194336 89.464 -55.2710
4122.855469 89.372 -55.9587
4152.730957 89.280 -56.6304
4182.823730 89.187 -57.2879
4213.133789 89.094 -57.9333
4243.664062 88.999 -58.5660
4274.415527 88.904 -59.1867
4305.389648 88.806 -59.7941
4336.588379 88.708 -60.3864
4368.013184 88.609 -60.9653
4399.665527 88.511 -61.5321
4431.547363 88.410 -62.0853
4463.660156 88.308 -62.6244
4496.005371 88.205 -63.1484
4528.585449 88.101 -63.6557
4561.401367 87.997 -64.1477
4594.455078 87.893 -64.6257
4627.748535 87.789 -65.0888
4661.283203 87.683 -65.5367
4695.060547 87.577 -65.9679
4729.083008 87.470 -66.3804
4763.352051 87.364 -66.7752
4797.869141 87.257 -67.1523
4832.636719 87.152 -67.5122
4867.655762 87.047 -67.8546
4902.928711 86.943 -68.1814
4938.457520 86.840 -68.4940
4974.243652 86.738 -68.7936
5010.289062 86.638 -69.0819
5046.595703 86.538 -69.3596
5083.165527 86.441 -69.6268
5120.000000 86.345 -69.8867
5157.101562 86.252 -70.1440
5194.472168 86.158 -70.3958
5232.113281 86.064 -70.6415
5270.027344 85.970 -70.8788
5308.216309 85.877 -71.1049
5346.681641 85.783 -71.3210
5385.426270 85.692 -71.5273
5424.451172 85.602 -71.7241
5463.758789 85.512 -71.9108
5503.351562 85.423 -72.0891
5543.230957 85.337 -72.2601
5583.399414 85.252 -72.4252
5623.859375 85.168 -72.5870
5664.611816 85.085 -72.7442
5705.660156 85.003 -72.8970
5747.005859 84.922 -73.0443
5788.650879 84.842 -73.1858
5830.597656 84.762 -73.3193
5872.848633 84.682 -73.4433
5915.405762 84.602 -73.5555
5958.271484 84.525 -73.6516
6001.447266 84.449 -73.7356
6044.936523 84.377 -73.8090
6088.740234 84.307 -73.8747
6132.861816 84.241 -73.9358
6177.303223 84.177 -73.9937
6222.066406 84.117 -74.0502
6267.154297 84.059 -74.1067
6312.568359 84.005 -74.1654
6358.312012 83.954 -74.2257
6404.386719 83.904 -74.2880
6450.795898 83.857 -74.3517
6497.541016 83.813 -74.4144
6544.625000 83.773 -74.4807
6592.049805 83.737 -74.5542
6639.818359 83.705 -74.6356
6687.933594 83.676 -74.7252
6736.396973 83.651 -74.8274
6785.211426 83.631 -74.9452
6834.379883 83.616 -75.0832
6883.904785 83.604 -75.2477
6933.788574 83.596 -75.4380
6984.033691 83.590 -75.6551
7034.642578 83.587 -75.9007
7085.618652 83.588 -76.1760
7136.963867 83.591 -76.4834
7188.681152 83.596 -76.8246
7240.773438 83.604 -77.2030
7293.243164 83.616 -77.6207
7346.092773 83.630 -78.0826
7399.325684 83.646 -78.5931
7452.944336 83.663 -79.1560
7506.951172 83.682 -79.7733
7561.350098 83.703 -80.4553
7616.142578 83.726 -81.2115
7671.332031 83.749 -82.0475
7726.921875 83.768 -82.9717
7782.914551 83.782 -83.9845
7839.312500 83.791 -85.0900
7896.119629 83.791 -86.2864
7953.337891 83.780 -87.5788
8010.971191 83.753 -88.9506
8069.021973 83.707 -90.3936
8127.493164 83.641 -91.8870
8186.388672 83.555 -93.4143
8245.710938 83.447 -94.9539
8305.461914 83.315 -96.4846
8365.647461 83.162 -97.9892
8426.267578 82.989 -99.4458
8487.328125 82.797 -100.8468
8548.831055 82.588 -102.1787
8610.779297 82.363 -103.4356
8673.176758 82.125 -104.6069
8736.026367 81.875 -105.6934
8799.331055 81.617 -106.6932
8863.094727 81.349 -107.6034
8927.320312 81.072 -108.4209
8992.010742 80.788 -109.1444
9057.170898 80.498 -109.7708
9122.802734 80.204 -110.3024
9188.910156 79.906 -110.7422
9255.497070 79.606 -111.0864
9322.566406 79.301 -111.3311
9390.121094 78.997 -111.4795
9458.166016 78.694 -111.5313
9526.704102 78.394 -111.4924
9595.738281 78.095 -111.3683
9665.273438 77.800 -111.1593
9735.311523 77.507 -110.8668
9805.857422 77.220 -110.4942
9876.915039 76.938 -110.0448
9948.487305 76.661 -109.5210
10020.578125 76.391 -108.9250
10093.191406 76.128 -108.2608
10166.331055 75.873 -107.5314
10240.000000 75.626 -106.7413
10314.203125 75.387 -105.8947
10388.944336 75.157 -104.9954
10464.226562 74.936 -104.0462
10540.054688 74.725 -103.0540
10616.432617 74.526 -102.0250
10693.363281 74.336 -100.9644
10770.852539 74.155 -99.8791
10848.902344 73.982 -98.7691
10927.517578 73.818 -97.6363
11006.703125 73.662 -96.4813
11086.461914 73.513 -95.3071
11166.798828 73.371 -94.1077
11247.718750 73.233 -92.8802
11329.223633 73.102 -91.6186
11411.320312 72.976 -90.3178
11494.011719 72.857 -88.9724
11577.301758 72.744 -87.5778
11661.195312 72.641 -86.1272
11745.697266 72.545 -84.6122
11830.811523 72.462 -83.0337
11916.542969 72.395 -81.3877
12002.894531 72.344 -79.6816
12089.873047 72.313 -77.9166
12177.480469 72.306 -76.1084
12265.723633 72.326 -74.2660
12354.606445 72.375 -72.4110
12444.132812 72.453 -70.5616
12534.308594 72.562 -68.7368
12625.136719 72.702 -66.9547
12716.624023 72.873 -65.2359
12808.773438 73.076 -63.6004
12901.591797 73.311 -62.0674
12995.082031 73.575 -60.6550
13089.250000 73.870 -59.3860
13184.099609 74.196 -58.2778
13279.636719 74.550 -57.3632
13375.867188 74.935 -56.6697
13472.793945 75.345 -56.2307
13570.422852 75.774 -56.0796
13668.759766 76.217 -56.2440
13767.809570 76.670 -56.7551
13867.577148 77.122 -57.6357
13968.067383 77.567 -58.9229
14069.285156 77.992 -60.6053
14171.237305 78.381 -62.6989
14273.927734 78.730 -65.1581
14377.362305 79.029 -67.9626
14481.546875 79.274 -71.0514
14586.486328 79.456 -74.3822
14692.185547 79.575 -77.8783
14798.651367 79.622 -81.4731
14905.888672 79.604 -85.0910
15013.902344 79.521 -88.6531
15122.700195 79.376 -92.1038
15232.285156 79.171 -95.3730
15342.664062 78.916 -98.4272
15453.843750 78.615 -101.2101
15565.829102 78.278 -103.7202
15678.625000 77.914 -105.9332
15792.239258 77.530 -107.8623
15906.675781 77.131 -109.5053
16021.942383 76.725 -110.8842
16138.043945 76.322 -112.0089
16254.986328 75.924 -112.9143
16372.777344 75.539 -113.6290
16491.421875 75.167 -114.1813
16610.923828 74.809 -114.6019
16731.294922 74.467 -114.9125
16852.535156 74.142 -115.1381
16974.656250 73.831 -115.2992
17097.662109 73.534 -115.4205
17221.558594 73.249 -115.5145
17346.353516 72.974 -115.6018
17472.052734 72.705 -115.6825
17598.662109 72.438 -115.7663
17726.189453 72.173 -115.8446
17854.640625 71.904 -115.9170
17984.021484 71.631 -115.9678
18114.341797 71.348 -115.9893
18245.605469 71.057 -115.9564
18377.820312 70.753 -115.8493
18510.994141 70.439 -115.6435
18645.132812 70.115 -115.3123
18780.242188 69.785 -114.8429
18916.332031 69.451 -114.2164
19053.408203 69.119 -113.4260
19191.476562 68.789 -112.4525
19330.546875 68.471 -111.3146
19470.623047 68.174 -110.0099
19611.714844 67.901 -108.5824
19753.830078 67.661 -107.0636
19896.974609 67.451 -105.4887
