* Measurement data measured by REW V5.20.13
* Source: C:\Users\kurin\Desktop\Targets and Curves\Resolve\Img\Files\SA6 Mk2 gras Bass On_SPL.txt
* Format: Comma/Tab/Space delimited data
* Dated: Aug 14, 2023 6:57:44 PM
* REW Settings:
*  C-weighting compensation: Off
*  Target level: 75.0 dB
* Note: ; Measurement imported from C:\Users\kurin\Desktop\Targets and Curves\Resolve\Img\Files\SA6 Mk2 gras Bass On_SPL.txt Format: Comma/Tab/Space delimited data 623 values loaded, 5 Hz to 39,792 Hz log spaced 
* Measurement: SA6 Mk2 gras Bass On_SPL
* Smoothing: 1/48 octave
* Frequency Step: 1/96 octave
* Start Frequency: 5.000 Hz
*
* Freq(Hz) SPL(dB) Phase(degrees)
5.000000 87.706 4.0380
5.036232 87.707 4.0312
5.072727 87.709 4.0240
5.109486 87.711 4.0161
5.146511 87.714 4.0070
5.183805 87.717 3.9961
5.221369 87.721 3.9840
5.259205 87.724 3.9713
5.297316 87.728 3.9580
5.335702 87.732 3.9442
5.374367 87.737 3.9300
5.413311 87.741 3.9156
5.452538 87.745 3.9010
5.492050 87.749 3.8866
5.531847 87.753 3.8720
5.571934 87.757 3.8571
5.612310 87.761 3.8420
5.652979 87.765 3.8271
5.693943 87.769 3.8120
5.735204 87.773 3.7965
5.776763 87.778 3.7810
5.818624 87.782 3.7661
5.860788 87.786 3.7510
5.903258 87.790 3.7351
5.946035 87.794 3.7190
5.989123 87.798 3.7030
6.032523 87.802 3.6870
6.076237 87.806 3.6711
6.120268 87.810 3.6550
6.164618 87.814 3.6386
6.209289 87.819 3.6220
6.254284 87.823 3.6056
6.299605 87.827 3.5890
6.345255 87.831 3.5721
6.391235 87.835 3.5550
6.437549 87.839 3.5381
6.484198 87.843 3.5210
6.531185 87.847 3.5036
6.578513 87.852 3.4860
6.626183 87.856 3.4686
6.674199 87.860 3.4510
6.722563 87.864 3.4331
6.771278 87.868 3.4150
6.820345 87.872 3.3971
6.869768 87.876 3.3790
6.919549 87.880 3.3606
6.969691 87.884 3.3420
7.020196 87.888 3.3236
7.071068 87.893 3.3050
7.122308 87.897 3.2861
7.173919 87.901 3.2670
7.225904 87.905 3.2476
7.278266 87.909 3.2280
7.331007 87.913 3.2085
7.384131 87.917 3.1890
7.437639 87.921 3.1696
7.491535 87.925 3.1500
7.545822 87.929 3.1296
7.600502 87.934 3.1090
7.655579 87.938 3.0891
7.711054 87.942 3.0690
7.766932 87.946 3.0481
7.823214 87.950 3.0270
7.879904 87.954 3.0061
7.937005 87.958 2.9850
7.994520 87.962 2.9636
8.052452 87.966 2.9420
8.110803 87.970 2.9206
8.169578 87.975 2.8990
8.228777 87.979 2.8771
8.288406 87.983 2.8550
8.348468 87.987 2.8326
8.408964 87.991 2.8100
8.469899 87.995 2.7876
8.531276 87.999 2.7650
8.593097 88.003 2.7421
8.655366 88.007 2.7190
8.718086 88.011 2.6956
8.781260 88.016 2.6720
8.844893 88.020 2.6486
8.908987 88.024 2.6250
8.973545 88.028 2.6011
9.038571 88.032 2.5770
9.104069 88.036 2.5526
9.170040 88.040 2.5280
9.236490 88.044 2.5031
9.303422 88.048 2.4780
9.370838 88.052 2.4531
9.438744 88.057 2.4280
9.507140 88.061 2.4021
9.576033 88.065 2.3760
9.645425 88.069 2.3500
9.715320 88.073 2.3240
9.785721 88.077 2.2981
9.856632 88.081 2.2720
9.928058 88.085 2.2451
10.000000 88.089 2.2180
10.072464 88.093 2.1911
10.145453 88.098 2.1640
10.218971 88.102 2.1367
10.293022 88.106 2.1090
10.367610 88.110 2.0806
10.442738 88.114 2.0520
10.518411 88.118 2.0235
10.594631 88.122 1.9950
10.671404 88.126 1.9666
10.748734 88.130 1.9380
10.826623 88.134 1.9087
10.905077 88.139 1.8790
10.984100 88.143 1.8491
11.063695 88.147 1.8190
11.143867 88.151 1.7886
11.224621 88.155 1.7580
11.305959 88.159 1.7276
11.387886 88.163 1.6970
11.470407 88.167 1.6656
11.553527 88.171 1.6340
11.637249 88.175 1.6026
11.721577 88.180 1.5710
11.806517 88.184 1.5387
11.892071 88.188 1.5060
11.978246 88.192 1.4736
12.065045 88.196 1.4410
12.152473 88.200 1.4077
12.240536 88.204 1.3740
12.329235 88.208 1.3401
12.418578 88.213 1.3060
12.508568 88.217 1.2716
12.599211 88.221 1.2370
12.690510 88.225 1.2022
12.782471 88.229 1.1670
12.875097 88.233 1.1317
12.968395 88.237 1.0960
13.062370 88.241 1.0601
13.157025 88.245 1.0240
13.252366 88.249 0.9877
13.348398 88.254 0.9510
13.445127 88.258 0.9137
13.542556 88.262 0.8760
13.640691 88.266 0.8382
13.739536 88.270 0.8000
13.839099 88.274 0.7616
13.939383 88.278 0.7230
14.040393 88.282 0.6842
14.142136 88.286 0.6450
14.244616 88.290 0.6052
14.347837 88.295 0.5650
14.451808 88.299 0.5247
14.556532 88.303 0.4840
14.662014 88.307 0.4427
14.768262 88.311 0.4010
14.875278 88.315 0.3592
14.983070 88.319 0.3170
15.091644 88.323 0.2747
15.201005 88.327 0.2320
15.311157 88.331 0.1888
15.422109 88.336 0.1450
15.533863 88.340 0.1007
15.646428 88.344 0.0560
15.759809 88.348 0.0112
15.874010 88.352 -0.0340
15.989040 88.356 -0.0798
16.104904 88.360 -0.1260
16.221605 88.364 -0.1722
16.339155 88.368 -0.2189
16.457554 88.372 -0.2667
16.576813 88.377 -0.3150
16.696936 88.381 -0.3633
16.817928 88.385 -0.4120
16.939798 88.389 -0.4612
17.062551 88.393 -0.5109
17.186193 88.397 -0.5612
17.310732 88.401 -0.6120
17.436172 88.405 -0.6632
17.562521 88.409 -0.7150
17.689787 88.413 -0.7671
17.817974 88.418 -0.8199
17.947090 88.422 -0.8736
18.077143 88.426 -0.9280
18.208138 88.430 -0.9826
18.340080 88.434 -1.0379
18.472980 88.438 -1.0941
18.606844 88.442 -1.1510
18.741676 88.446 -1.2085
18.877487 88.450 -1.2669
19.014280 88.454 -1.3269
19.152065 88.459 -1.3879
19.290850 88.463 -1.4498
19.430639 88.467 -1.5130
19.571442 88.471 -1.5778
19.713264 88.474 -1.6439
19.856115 88.478 -1.7111
20.000000 88.481 -1.7789
20.144928 88.484 -1.8471
20.290907 88.486 -1.9149
20.437943 88.488 -1.9823
20.586044 88.489 -2.0480
20.735220 88.490 -2.1109
20.885475 88.491 -2.1709
21.036821 88.492 -2.2270
21.189262 88.493 -2.2799
21.342808 88.495 -2.3297
21.497467 88.498 -2.3779
21.653246 88.501 -2.4258
21.810154 88.505 -2.4749
21.968201 88.510 -2.5270
22.127390 88.516 -2.5829
22.287735 88.522 -2.6446
22.449242 88.528 -2.7109
22.611917 88.534 -2.7822
22.775772 88.539 -2.8569
22.940815 88.543 -2.9340
23.107054 88.547 -3.0119
23.274498 88.550 -3.0888
23.443153 88.553 -3.1639
23.613033 88.555 -3.2350
23.784142 88.558 -3.3039
23.956491 88.562 -3.3709
24.130091 88.566 -3.4389
24.304947 88.572 -3.5109
24.481071 88.578 -3.5869
24.658470 88.584 -3.6678
24.837156 88.590 -3.7539
25.017136 88.596 -3.8462
25.198421 88.602 -3.9439
25.381020 88.606 -4.0474
25.564941 88.610 -4.1539
25.750195 88.612 -4.2611
25.936790 88.614 -4.3679
26.124741 88.615 -4.4724
26.314051 88.616 -4.5749
26.504732 88.616 -4.6749
26.696796 88.616 -4.7729
26.890253 88.616 -4.8690
27.085112 88.616 -4.9639
27.281382 88.616 -5.0583
27.479073 88.616 -5.1519
27.678198 88.616 -5.2446
27.878765 88.616 -5.3369
28.080786 88.616 -5.4294
28.284271 88.616 -5.5219
28.489231 88.616 -5.6143
28.695675 88.616 -5.7069
28.903616 88.616 -5.7997
29.113064 88.616 -5.8929
29.324028 88.616 -5.9863
29.536524 88.616 -6.0799
29.750557 88.616 -6.1738
29.966141 88.616 -6.2679
30.183289 88.616 -6.3621
30.402010 88.616 -6.4569
30.622314 88.616 -6.5525
30.844217 88.616 -6.6489
31.067726 88.616 -6.7460
31.292856 88.616 -6.8439
31.519617 88.616 -6.9425
31.748020 88.616 -7.0419
31.978081 88.616 -7.1419
32.209808 88.616 -7.2429
32.443211 88.616 -7.3449
32.678310 88.616 -7.4479
32.915108 88.616 -7.5517
33.153625 88.616 -7.6569
33.393871 88.616 -7.7635
33.635857 88.616 -7.8718
33.879597 88.616 -7.9818
34.125103 88.616 -8.0938
34.372387 88.616 -8.2080
34.621464 88.616 -8.3248
34.872345 88.616 -8.4448
35.125042 88.615 -8.5678
35.379574 88.614 -8.6939
35.635948 88.613 -8.8228
35.894180 88.611 -8.9553
36.154285 88.609 -9.0888
36.416275 88.605 -9.2213
36.680161 88.600 -9.3518
36.945961 88.594 -9.4786
37.213688 88.588 -9.6018
37.483353 88.582 -9.7212
37.754974 88.576 -9.8368
38.028561 88.571 -9.9480
38.304131 88.566 -10.0569
38.581699 88.562 -10.1645
38.861279 88.559 -10.2738
39.142883 88.557 -10.3876
39.426529 88.555 -10.5068
39.712231 88.554 -10.6336
40.000000 88.552 -10.7678
40.289856 88.550 -10.9112
40.581814 88.547 -11.0608
40.875885 88.543 -11.2158
41.172089 88.536 -11.3718
41.470440 88.526 -11.5249
41.770950 88.515 -11.6728
42.073643 88.504 -11.8109
42.378525 88.492 -11.9408
42.685616 88.480 -12.0626
42.994934 88.468 -12.1768
43.306492 88.456 -12.2828
43.620308 88.446 -12.3848
43.936401 88.438 -12.4861
44.254780 88.432 -12.5888
44.575470 88.426 -12.6969
44.898483 88.420 -12.8088
45.223835 88.414 -12.9245
45.551544 88.407 -13.0438
45.881630 88.401 -13.1667
46.214108 88.395 -13.2928
46.548996 88.389 -13.4217
46.886307 88.382 -13.5538
47.226067 88.375 -13.6890
47.568283 88.368 -13.8278
47.912983 88.361 -13.9712
48.260181 88.353 -14.1178
48.609894 88.344 -14.2668
48.962143 88.333 -14.4168
49.316940 88.321 -14.5661
49.674313 88.309 -14.7138
50.034271 88.296 -14.8582
50.396843 88.282 -14.9988
50.762039 88.267 -15.1342
51.129883 88.252 -15.2648
51.500389 88.237 -15.3895
51.873581 88.223 -15.5108
52.249481 88.209 -15.6312
52.628101 88.195 -15.7498
53.009464 88.181 -15.8657
53.393593 88.168 -15.9808
53.780506 88.155 -16.0961
54.170223 88.143 -16.2128
54.562763 88.131 -16.3329
54.958145 88.118 -16.4548
55.356396 88.105 -16.5771
55.757530 88.092 -16.7008
56.161572 88.079 -16.8279
56.568542 88.065 -16.9548
56.978462 88.049 -17.0791
57.391350 88.033 -17.1998
57.807232 88.017 -17.3140
58.226128 88.002 -17.4248
58.648056 87.987 -17.5336
59.073048 87.973 -17.6418
59.501114 87.960 -17.7508
59.932281 87.947 -17.8618
60.366577 87.935 -17.9767
60.804020 87.922 -18.0948
61.244629 87.909 -18.2167
61.688435 87.895 -18.3408
62.135452 87.882 -18.4657
62.585712 87.868 -18.5918
63.039234 87.854 -18.7196
63.496040 87.839 -18.8478
63.956161 87.824 -18.9748
64.419617 87.808 -19.1018
64.886421 87.793 -19.2286
65.356621 87.779 -19.3578
65.830215 87.764 -19.4930
66.307251 87.749 -19.6307
66.787743 87.732 -19.7689
67.271713 87.714 -19.9067
67.759193 87.696 -20.0423
68.250206 87.678 -20.1768
68.744774 87.659 -20.3116
69.242928 87.639 -20.4438
69.744690 87.618 -20.5696
70.250084 87.597 -20.6918
70.759148 87.578 -20.8108
71.271896 87.559 -20.9288
71.788361 87.540 -21.0485
72.308571 87.520 -21.1688
72.832550 87.500 -21.2888
73.360321 87.481 -21.4098
73.891922 87.462 -21.5331
74.427376 87.443 -21.6578
74.966705 87.422 -21.7833
75.509949 87.401 -21.9098
76.057121 87.381 -22.0373
76.608261 87.360 -22.1647
77.163399 87.337 -22.2921
77.722557 87.314 -22.4167
78.285767 87.291 -22.5353
78.853058 87.267 -22.6508
79.424461 87.244 -22.7646
80.000000 87.221 -22.8778
80.579712 87.198 -22.9923
81.163628 87.175 -23.1068
81.751770 87.152 -23.2198
82.344177 87.128 -23.3328
82.940880 87.105 -23.4463
83.541901 87.081 -23.5608
84.147285 87.057 -23.6777
84.757050 87.033 -23.7948
85.371231 87.007 -23.9110
85.989868 86.980 -24.0238
86.612984 86.952 -24.1300
87.240616 86.923 -24.2308
87.872803 86.896 -24.3258
88.509560 86.869 -24.4158
89.150940 86.841 -24.5014
89.796967 86.814 -24.5838
90.447670 86.788 -24.6642
91.103088 86.763 -24.7438
91.763260 86.738 -24.8239
92.428215 86.714 -24.9058
93.097992 86.691 -24.9918
93.772614 86.668 -25.0808
94.452133 86.644 -25.1730
95.136566 86.619 -25.2678
95.825966 86.595 -25.3650
96.520363 86.570 -25.4638
97.219788 86.543 -25.5637
97.924286 86.516 -25.6628
98.633881 86.489 -25.7582
99.348625 86.461 -25.8518
100.068542 86.434 -25.9453
100.793686 86.406 -26.0368
101.524078 86.377 -26.1247
102.259766 86.347 -26.2098
103.000778 86.318 -26.2915
103.747162 86.290 -26.3718
104.498962 86.262 -26.4531
105.256203 86.234 -26.5338
106.018929 86.205 -26.6130
106.787186 86.176 -26.6918
107.561012 86.148 -26.7720
108.340446 86.119 -26.8519
109.125526 86.089 -26.9306
109.916290 86.058 -27.0079
110.712791 86.028 -27.0830
111.515060 85.998 -27.1558
112.323143 85.967 -27.2257
113.137085 85.936 -27.2929
113.956924 85.905 -27.3569
114.782700 85.875 -27.4198
115.614464 85.846 -27.4836
116.452255 85.816 -27.5479
117.296112 85.786 -27.6129
118.146095 85.756 -27.6789
119.002228 85.726 -27.7461
119.864563 85.695 -27.8138
120.733154 85.663 -27.8813
121.608040 85.631 -27.9479
122.489258 85.599 -28.0130
123.376869 85.566 -28.0758
124.270905 85.532 -28.1359
125.171425 85.497 -28.1909
126.078468 85.462 -28.2373
126.992081 85.427 -28.2789
127.912323 85.394 -28.3184
128.839233 85.362 -28.3559
129.772842 85.328 -28.3932
130.713242 85.294 -28.4289
131.660431 85.261 -28.4614
132.614502 85.228 -28.4929
133.575485 85.196 -28.5262
134.543427 85.164 -28.5589
135.518387 85.130 -28.5899
136.500412 85.096 -28.6189
137.489548 85.063 -28.6445
138.485855 85.031 -28.6689
139.489380 84.998 -28.6948
140.500168 84.965 -28.7199
141.518295 84.932 -28.7423
142.543793 84.899 -28.7639
143.576721 84.868 -28.7863
144.617142 84.836 -28.8099
145.665100 84.803 -28.8371
146.720642 84.769 -28.8639
147.783844 84.735 -28.8871
148.854752 84.701 -28.9079
149.933411 84.667 -28.9260
151.019897 84.633 -28.9430
152.114243 84.599 -28.9606
153.216522 84.565 -28.9780
154.326797 84.531 -28.9949
155.445114 84.496 -29.0110
156.571533 84.461 -29.0253
157.706116 84.425 -29.0390
158.848923 84.390 -29.0538
160.000000 84.354 -29.0660
161.159424 84.316 -29.0731
162.327255 84.276 -29.0730
163.503540 84.236 -29.0618
164.688354 84.197 -29.0430
165.881760 84.160 -29.0191
167.083801 84.124 -28.9901
168.294571 84.086 -28.9567
169.514099 84.049 -28.9191
170.742462 84.015 -28.8751
171.979736 83.982 -28.8321
173.225967 83.951 -28.7976
174.481232 83.921 -28.7691
175.745605 83.889 -28.7482
177.019119 83.856 -28.7300
178.301880 83.822 -28.7097
179.593933 83.788 -28.6891
180.895340 83.754 -28.6690
182.206177 83.720 -28.6481
183.526520 83.685 -28.6257
184.856430 83.649 -28.6001
186.195984 83.613 -28.5680
187.545227 83.576 -28.5321
188.904266 83.541 -28.4936
190.273132 83.505 -28.4531
191.651932 83.469 -28.4122
193.040726 83.433 -28.3691
194.439575 83.397 -28.3226
195.848572 83.360 -28.2731
197.267761 83.324 -28.2198
198.697250 83.289 -28.1651
200.137085 83.254 -28.1127
201.587372 83.219 -28.0581
203.048157 83.181 -27.9980
204.519531 83.143 -27.9332
206.001556 83.107 -27.8628
207.494324 83.072 -27.7892
208.997925 83.036 -27.7161
210.512405 83.000 -27.6392
212.037857 82.963 -27.5540
213.574371 82.926 -27.4642
215.122025 82.893 -27.3714
216.680893 82.860 -27.2782
218.251053 82.827 -27.1893
219.832581 82.794 -27.1003
221.425583 82.760 -27.0073
223.030121 82.727 -26.9132
224.646286 82.696 -26.8199
226.274170 82.665 -26.7272
227.913849 82.632 -26.6375
229.565399 82.598 -26.5462
231.228928 82.564 -26.4488
232.904510 82.531 -26.3483
234.592224 82.499 -26.2460
236.292191 82.468 -26.1423
238.004456 82.436 -26.0385
239.729126 82.403 -25.9333
241.466309 82.372 -25.8252
243.216080 82.341 -25.7163
244.978516 82.310 -25.6086
246.753738 82.279 -25.5003
248.541809 82.247 -25.3906
250.342850 82.215 -25.2793
252.156937 82.185 -25.1661
253.984161 82.154 -25.0513
255.824646 82.122 -24.9354
257.678467 82.090 -24.8173
259.545685 82.059 -24.6955
261.426483 82.028 -24.5713
263.320862 81.997 -24.4461
265.229004 81.966 -24.3184
267.150970 81.935 -24.1869
269.086853 81.903 -24.0524
271.036774 81.873 -23.9151
273.000824 81.842 -23.7744
274.979095 81.811 -23.6297
276.971710 81.780 -23.4815
278.978760 81.751 -23.3295
281.000336 81.723 -23.1754
283.036591 81.694 -23.0211
285.087585 81.666 -22.8655
287.153442 81.638 -22.7077
289.234283 81.611 -22.5494
291.330200 81.585 -22.3925
293.441284 81.559 -22.2354
295.567688 81.533 -22.0779
297.709503 81.506 -21.9184
299.866821 81.479 -21.7545
302.039795 81.453 -21.5885
304.228485 81.428 -21.4222
306.433044 81.404 -21.2555
308.653595 81.379 -21.0894
310.890228 81.354 -20.9225
313.143066 81.330 -20.7530
315.412231 81.306 -20.5825
317.697845 81.283 -20.4125
320.000000 81.259 -20.2415
322.318848 81.235 -20.0690
324.654510 81.210 -19.8936
327.007080 81.186 -19.7126
329.376709 81.163 -19.5286
331.763519 81.141 -19.3432
334.167603 81.120 -19.1566
336.589142 81.098 -18.9692
339.028198 81.077 -18.7815
341.484924 81.057 -18.5945
343.959473 81.037 -18.4075
346.451935 81.017 -18.2203
348.962463 80.997 -18.0325
351.491211 80.978 -17.8435
354.038239 80.959 -17.6536
356.603760 80.940 -17.4636
359.187866 80.920 -17.2706
361.790680 80.899 -17.0717
364.412354 80.879 -16.8676
367.053040 80.861 -16.6571
369.712860 80.844 -16.4437
372.391968 80.828 -16.2312
375.090454 80.812 -16.0176
377.808533 80.797 -15.8016
380.546265 80.783 -15.5846
383.303864 80.770 -15.3665
386.081451 80.759 -15.1506
388.879150 80.750 -14.9402
391.697144 80.741 -14.7356
394.535522 80.732 -14.5388
397.394501 80.723 -14.3475
400.274170 80.714 -14.1611
403.174744 80.704 -13.9776
406.096313 80.694 -13.7949
409.039062 80.684 -13.6126
412.003113 80.673 -13.4299
414.988647 80.661 -13.2446
417.995850 80.649 -13.0537
421.024811 80.638 -12.8586
424.075714 80.627 -12.6586
427.148743 80.617 -12.4566
430.244049 80.609 -12.2550
433.361786 80.602 -12.0556
436.502106 80.596 -11.8616
439.665161 80.590 -11.6726
442.851166 80.584 -11.4902
446.060242 80.577 -11.3116
449.292572 80.569 -11.1349
452.548340 80.561 -10.9576
455.827698 80.551 -10.7771
459.130798 80.541 -10.5906
462.457855 80.530 -10.3940
465.809021 80.519 -10.1887
469.184448 80.509 -9.9729
472.584381 80.501 -9.7517
476.008911 80.496 -9.5284
479.458252 80.493 -9.3067
482.932617 80.492 -9.0915
486.432159 80.491 -8.8827
489.957031 80.491 -8.6819
493.507477 80.491 -8.4876
497.083618 80.490 -8.2990
500.685699 80.489 -8.1146
504.313873 80.488 -7.9335
507.968323 80.486 -7.7526
511.649292 80.482 -7.5691
515.356934 80.478 -7.3816
519.091370 80.474 -7.1868
522.852966 80.471 -6.9877
526.641724 80.469 -6.7856
530.458008 80.468 -6.5817
534.301941 80.468 -6.3772
538.173706 80.468 -6.1727
542.073547 80.469 -5.9684
546.001648 80.471 -5.7657
549.958191 80.474 -5.5654
553.943420 80.478 -5.3696
557.957520 80.483 -5.1814
562.000671 80.488 -4.9986
566.073181 80.492 -4.8211
570.175171 80.495 -4.6466
574.306885 80.497 -4.4731
578.468567 80.499 -4.2986
582.660400 80.499 -4.1204
586.882568 80.499 -3.9377
591.135376 80.499 -3.7481
595.419006 80.500 -3.5527
599.733643 80.501 -3.3513
604.079590 80.502 -3.1447
608.456970 80.505 -2.9332
612.866089 80.509 -2.7187
617.307190 80.514 -2.5030
621.780457 80.521 -2.2877
626.286133 80.529 -2.0750
630.824463 80.538 -1.8647
635.395691 80.548 -1.6571
640.000000 80.558 -1.4527
644.637695 80.569 -1.2522
649.309021 80.581 -1.0557
654.014160 80.593 -0.8638
658.753418 80.605 -0.6756
663.527039 80.617 -0.4911
668.335205 80.628 -0.3076
673.178284 80.638 -0.1224
678.056396 80.649 0.0644
682.969849 80.661 0.2543
687.918945 80.673 0.4453
692.903870 80.687 0.6359
697.924927 80.701 0.8263
702.982422 80.715 1.0168
708.076477 80.729 1.2063
713.207520 80.745 1.3949
718.375732 80.762 1.5803
723.581360 80.779 1.7586
728.824707 80.797 1.9344
734.106079 80.813 2.1117
739.425720 80.829 2.2894
744.783936 80.847 2.4682
750.180908 80.866 2.6464
755.617065 80.885 2.8216
761.092529 80.904 2.9964
766.607727 80.923 3.1738
772.162903 80.943 3.3504
777.758301 80.966 3.5233
783.394287 80.989 3.6934
789.071045 81.011 3.8599
794.789001 81.033 4.0244
800.548340 81.057 4.1899
806.349487 81.082 4.3524
812.192627 81.108 4.5081
818.078125 81.134 4.6595
824.006226 81.159 4.8077
829.977295 81.184 4.9535
835.991699 81.210 5.0986
842.049622 81.237 5.2415
848.151428 81.264 5.3804
854.297485 81.292 5.5175
860.488098 81.319 5.6546
866.723572 81.347 5.7905
873.004211 81.376 5.9251
879.330322 81.405 6.0575
885.702332 81.435 6.1869
892.120483 81.466 6.3136
898.585144 81.497 6.4376
905.096680 81.529 6.5586
911.655396 81.561 6.6759
918.261597 81.594 6.7906
924.915710 81.627 6.9038
931.618042 81.662 7.0136
938.368896 81.697 7.1183
945.168762 81.734 7.2176
952.017822 81.771 7.3110
958.916504 81.809 7.3987
965.865234 81.847 7.4811
972.864319 81.885 7.5567
979.914062 81.925 7.6241
987.014954 81.965 7.6838
994.167236 82.004 7.7354
1001.371399 82.043 7.7808
1008.627747 82.082 7.8219
1015.936646 82.121 7.8589
1023.298584 82.160 7.8929
1030.713867 82.200 7.9229
1038.182739 82.240 7.9479
1045.705933 82.281 7.9679
1053.283447 82.321 7.9831
1060.916016 82.362 7.9930
1068.603882 82.404 7.9982
1076.347412 82.447 7.9960
1084.147095 82.490 7.9831
1092.003296 82.534 7.9611
1099.916382 82.576 7.9301
1107.886841 82.619 7.8912
1115.915039 82.662 7.8455
1124.001343 82.705 7.7922
1132.146362 82.747 7.7309
1140.350342 82.790 7.6613
1148.613770 82.832 7.5828
1156.937134 82.874 7.4954
1165.320801 82.915 7.3979
1173.765137 82.956 7.2925
1182.270752 82.995 7.1810
1190.838013 83.033 7.0635
1199.467285 83.071 6.9411
1208.159180 83.109 6.8125
1216.913940 83.145 6.6760
1225.732178 83.181 6.5345
1234.614380 83.214 6.3912
1243.560913 83.247 6.2446
1252.572266 83.281 6.0944
1261.648926 83.314 5.9396
1270.791382 83.345 5.7779
1280.000000 83.374 5.6126
1289.275391 83.403 5.4469
1298.618042 83.431 5.2797
1308.028320 83.458 5.1109
1317.506836 83.484 4.9417
1327.054077 83.508 4.7729
1336.670410 83.531 4.6056
1346.356567 83.554 4.4422
1356.112793 83.577 4.2806
1365.939697 83.599 4.1198
1375.837891 83.621 3.9597
1385.807739 83.643 3.7998
1395.849854 83.664 3.6406
1405.964844 83.685 3.4822
1416.152954 83.706 3.3246
1426.415039 83.726 3.1688
1436.751465 83.747 3.0116
1447.162720 83.769 2.8493
1457.649414 83.791 2.6837
1468.212158 83.810 2.5141
1478.851440 83.829 2.3437
1489.567871 83.847 2.1756
1500.361816 83.864 2.0086
1511.234131 83.881 1.8413
1522.185059 83.897 1.6767
1533.215454 83.911 1.5175
1544.325806 83.924 1.3647
1555.516602 83.938 1.2215
1566.788574 83.953 1.0836
1578.142090 83.969 0.9475
1589.578003 83.985 0.8136
1601.096680 84.001 0.6807
1612.698975 84.018 0.5495
1624.385254 84.035 0.4214
1636.156250 84.054 0.2926
1648.012451 84.075 0.1592
1659.954590 84.096 0.0225
1671.983398 84.116 -0.1182
1684.099243 84.136 -0.2614
1696.302856 84.157 -0.4045
1708.594971 84.178 -0.5513
1720.976196 84.200 -0.7056
1733.447144 84.223 -0.8653
1746.008423 84.244 -1.0304
1758.660645 84.264 -1.1983
1771.404663 84.285 -1.3661
1784.240967 84.305 -1.5343
1797.170288 84.325 -1.7030
1810.193359 84.344 -1.8713
1823.310791 84.363 -2.0381
1836.523193 84.383 -2.2043
1849.831421 84.403 -2.3704
1863.236084 84.424 -2.5372
1876.737793 84.445 -2.7065
1890.337524 84.467 -2.8773
1904.035645 84.489 -3.0480
1917.833008 84.512 -3.2213
1931.730469 84.536 -3.3989
1945.728638 84.560 -3.5812
1959.828125 84.584 -3.7692
1974.029907 84.609 -3.9622
1988.334473 84.634 -4.1586
2002.742798 84.660 -4.3612
2017.255493 84.687 -4.5720
2031.873291 84.714 -4.7911
2046.597168 84.740 -5.0200
2061.427734 84.766 -5.2559
2076.365479 84.791 -5.4968
2091.411865 84.815 -5.7420
2106.566895 84.839 -5.9900
2121.832031 84.863 -6.2419
2137.207764 84.887 -6.4995
2152.694824 84.911 -6.7600
2168.294189 84.933 -7.0201
2184.006592 84.956 -7.2828
2199.832764 84.981 -7.5487
2215.773682 85.006 -7.8209
2231.830078 85.031 -8.1029
2248.002686 85.057 -8.3938
2264.292725 85.082 -8.6929
2280.700684 85.108 -9.0026
2297.227539 85.134 -9.3257
2313.874268 85.159 -9.6606
2330.641602 85.182 -10.0078
2347.530273 85.203 -10.3635
2364.541504 85.223 -10.7233
2381.676025 85.241 -11.0883
2398.934570 85.258 -11.4597
2416.318359 85.274 -11.8323
2433.827881 85.286 -12.2013
2451.464355 85.297 -12.5675
2469.228760 85.309 -12.9284
2487.121826 85.322 -13.2894
2505.144531 85.335 -13.6555
2523.297852 85.349 -14.0263
2541.582764 85.362 -14.4029
2560.000000 85.374 -14.7863
2578.550781 85.387 -15.1775
2597.236084 85.400 -15.5771
2616.056641 85.411 -15.9875
2635.013672 85.420 -16.4052
2654.108154 85.427 -16.8282
2673.340820 85.433 -17.2551
2692.713135 85.437 -17.6843
2712.225586 85.440 -18.1150
2731.879395 85.441 -18.5457
2751.675781 85.441 -18.9770
2771.615479 85.440 -19.4095
2791.699707 85.438 -19.8421
2811.929688 85.434 -20.2746
2832.305908 85.429 -20.7050
2852.830078 85.422 -21.1313
2873.502930 85.414 -21.5532
2894.325439 85.405 -21.9697
2915.298828 85.395 -22.3801
2936.424316 85.384 -22.7825
2957.702881 85.373 -23.1793
2979.135742 85.364 -23.5707
3000.723633 85.356 -23.9613
3022.468262 85.349 -24.3562
3044.370117 85.342 -24.7542
3066.430908 85.334 -25.1552
3088.651611 85.325 -25.5602
3111.033203 85.318 -25.9702
3133.577148 85.310 -26.3850
3156.284180 85.301 -26.8063
3179.156006 85.290 -27.2300
3202.193359 85.278 -27.6527
3225.397949 85.264 -28.0740
3248.770508 85.251 -28.4914
3272.312500 85.237 -28.9071
3296.024902 85.223 -29.3226
3319.909180 85.210 -29.7381
3343.966797 85.197 -30.1537
3368.198486 85.184 -30.5710
3392.605713 85.171 -30.9911
3417.189941 85.159 -31.4160
3441.952393 85.147 -31.8487
3466.894287 85.135 -32.2870
3492.016846 85.121 -32.7300
3517.321289 85.107 -33.1769
3542.809326 85.093 -33.6262
3568.481934 85.079 -34.0799
3594.340576 85.065 -34.5395
3620.386719 85.050 -35.0048
3646.621582 85.036 -35.4759
3673.046387 85.021 -35.9537
3699.662842 85.006 -36.4372
3726.472168 84.992 -36.9317
3753.475586 84.980 -37.4422
3780.675049 84.967 -37.9686
3808.071289 84.951 -38.5133
3835.666016 84.934 -39.0733
3863.460938 84.916 -39.6457
3891.457275 84.896 -40.2332
3919.656250 84.875 -40.8383
3948.059814 84.851 -41.4581
3976.668945 84.823 -42.0913
4005.485596 84.791 -42.7348
4034.510986 84.757 -43.3848
4063.746582 84.720 -44.0428
4093.194336 84.680 -44.7099
4122.855469 84.637 -45.3847
4152.730957 84.590 -46.0670
4182.823730 84.538 -46.7547
4213.133789 84.484 -47.4459
4243.664062 84.425 -48.1407
4274.415527 84.363 -48.8390
4305.389648 84.296 -49.5396
4336.588379 84.225 -50.2425
4368.013184 84.147 -50.9437
4399.665527 84.064 -51.6405
4431.547363 83.975 -52.3277
4463.660156 83.880 -53.0000
4496.005371 83.779 -53.6538
4528.585449 83.671 -54.2852
4561.401367 83.559 -54.8902
4594.455078 83.441 -55.4651
4627.748535 83.318 -56.0055
4661.283203 83.190 -56.5054
4695.060547 83.059 -56.9649
4729.083008 82.926 -57.3813
4763.352051 82.791 -57.7563
4797.869141 82.654 -58.0907
4832.636719 82.517 -58.3846
4867.655762 82.379 -58.6389
4902.928711 82.242 -58.8531
4938.457520 82.104 -59.0276
4974.243652 81.966 -59.1605
5010.289062 81.828 -59.2494
5046.595703 81.692 -59.2959
5083.165527 81.559 -59.3000
5120.000000 81.429 -59.2643
5157.101562 81.302 -59.1908
5194.472168 81.179 -59.0816
5232.113281 81.060 -58.9377
5270.027344 80.948 -58.7649
5308.216309 80.841 -58.5679
5346.681641 80.741 -58.3521
5385.426270 80.648 -58.1238
5424.451172 80.560 -57.8852
5463.758789 80.478 -57.6391
5503.351562 80.401 -57.3892
5543.230957 80.331 -57.1390
5583.399414 80.265 -56.8922
5623.859375 80.205 -56.6539
5664.611816 80.149 -56.4241
5705.660156 80.098 -56.2048
5747.005859 80.049 -55.9951
5788.650879 80.004 -55.7946
5830.597656 79.961 -55.6040
5872.848633 79.922 -55.4243
5915.405762 79.885 -55.2529
5958.271484 79.849 -55.0875
6001.447266 79.816 -54.9268
6044.936523 79.787 -54.7665
6088.740234 79.762 -54.6137
6132.861816 79.743 -54.4725
6177.303223 79.729 -54.3486
6222.066406 79.719 -54.2479
6267.154297 79.714 -54.1733
6312.568359 79.713 -54.1276
6358.312012 79.716 -54.1170
6404.386719 79.724 -54.1469
6450.795898 79.735 -54.2225
6497.541016 79.747 -54.3512
6544.625000 79.760 -54.5320
6592.049805 79.772 -54.7667
6639.818359 79.781 -55.0534
6687.933594 79.787 -55.3915
6736.396973 79.789 -55.7779
6785.211426 79.786 -56.2115
6834.379883 79.777 -56.6855
6883.904785 79.760 -57.1954
6933.788574 79.734 -57.7332
6984.033691 79.700 -58.2915
7034.642578 79.658 -58.8631
7085.618652 79.607 -59.4404
7136.963867 79.547 -60.0171
7188.681152 79.479 -60.5853
7240.773438 79.404 -61.1422
7293.243164 79.323 -61.6834
7346.092773 79.235 -62.2064
7399.325684 79.142 -62.7079
7452.944336 79.044 -63.1867
7506.951172 78.941 -63.6386
7561.350098 78.835 -64.0688
7616.142578 78.727 -64.4794
7671.332031 78.617 -64.8750
7726.921875 78.505 -65.2606
7782.914551 78.391 -65.6381
7839.312500 78.273 -66.0117
7896.119629 78.151 -66.3801
7953.337891 78.024 -66.7452
8010.971191 77.891 -67.1012
8069.021973 77.750 -67.4459
8127.493164 77.602 -67.7694
8186.388672 77.444 -68.0640
8245.710938 77.278 -68.3198
8305.461914 77.102 -68.5279
8365.647461 76.917 -68.6774
8426.267578 76.723 -68.7547
8487.328125 76.524 -68.7582
8548.831055 76.322 -68.6809
8610.779297 76.116 -68.5250
8673.176758 75.908 -68.2937
8736.026367 75.697 -67.9770
8799.331055 75.482 -67.5674
8863.094727 75.266 -67.0609
8927.320312 75.054 -66.4502
8992.010742 74.844 -65.7380
9057.170898 74.637 -64.9255
9122.802734 74.436 -64.0101
9188.910156 74.241 -62.9878
9255.497070 74.056 -61.8643
9322.566406 73.884 -60.6402
9390.121094 73.727 -59.3282
9458.166016 73.586 -57.9369
9526.704102 73.464 -56.4789
9595.738281 73.361 -54.9648
9665.273438 73.278 -53.4083
9735.311523 73.217 -51.8226
9805.857422 73.176 -50.2197
9876.915039 73.156 -48.6113
9948.487305 73.158 -47.0116
10020.578125 73.182 -45.4348
10093.191406 73.225 -43.8922
10166.331055 73.286 -42.3977
10240.000000 73.364 -40.9575
10314.203125 73.458 -39.5820
10388.944336 73.565 -38.2731
10464.226562 73.682 -37.0376
10540.054688 73.809 -35.8707
10616.432617 73.946 -34.7691
10693.363281 74.091 -33.7349
10770.852539 74.245 -32.7692
10848.902344 74.406 -31.8717
10927.517578 74.573 -31.0438
11006.703125 74.746 -30.2810
11086.461914 74.924 -29.5796
11166.798828 75.106 -28.9374
11247.718750 75.293 -28.3502
11329.223633 75.486 -27.8196
11411.320312 75.686 -27.3461
11494.011719 75.893 -26.9281
11577.301758 76.104 -26.5642
11661.195312 76.324 -26.2546
11745.697266 76.553 -25.9932
11830.811523 76.795 -25.7979
11916.542969 77.053 -25.6777
12002.894531 77.324 -25.6528
12089.873047 77.609 -25.7383
12177.480469 77.907 -25.9593
12265.723633 78.222 -26.3393
12354.606445 78.546 -26.8984
12444.132812 78.873 -27.6629
12534.308594 79.199 -28.6381
12625.136719 79.521 -29.8361
12716.624023 79.835 -31.2628
12808.773438 80.138 -32.9335
12901.591797 80.421 -34.8316
12995.082031 80.677 -36.9567
13089.250000 80.903 -39.2759
13184.099609 81.096 -41.7638
13279.636719 81.255 -44.3961
13375.867188 81.378 -47.1517
13472.793945 81.463 -49.9957
13570.422852 81.505 -52.8973
13668.759766 81.508 -55.8226
13767.809570 81.472 -58.7364
13867.577148 81.398 -61.6105
13968.067383 81.285 -64.4106
14069.285156 81.139 -67.1209
14171.237305 80.964 -69.7143
14273.927734 80.762 -72.1902
14377.362305 80.537 -74.5399
14481.546875 80.289 -76.7609
14586.486328 80.022 -78.8482
14692.185547 79.736 -80.8000
14798.651367 79.434 -82.6168
14905.888672 79.115 -84.2848
15013.902344 78.778 -85.7988
15122.700195 78.424 -87.1340
15232.285156 78.054 -88.2685
15342.664062 77.670 -89.1871
15453.843750 77.276 -89.8688
15565.829102 76.877 -90.3083
15678.625000 76.477 -90.4828
15792.239258 76.088 -90.4249
15906.675781 75.721 -90.1406
16021.942383 75.382 -89.6878
16138.043945 75.078 -89.1121
16254.986328 74.807 -88.4579
16372.777344 74.572 -87.7735
16491.421875 74.369 -87.0927
16610.923828 74.199 -86.4611
16731.294922 74.052 -85.8911
16852.535156 73.920 -85.4164
16974.656250 73.797 -85.0182
17097.662109 73.674 -84.6972
17221.558594 73.551 -84.4285
17346.353516 73.423 -84.1904
17472.052734 73.294 -83.9733
17598.662109 73.162 -83.7617
17726.189453 73.029 -83.5522
17854.640625 72.894 -83.3364
17984.021484 72.759 -83.1133
18114.341797 72.624 -82.8782
18245.605469 72.490 -82.6334
18377.820312 72.357 -82.3810
18510.994141 72.225 -82.1176
18645.132812 72.091 -81.8438
18780.242188 71.957 -81.5497
18916.332031 71.820 -81.2288
19053.408203 71.682 -80.8712
19191.476562 71.542 -80.4634
19330.546875 71.406 -80.0086
19470.623047 71.275 -79.5015
19611.714844 71.152 -78.9542
19753.830078 71.037 -78.3735
19896.974609 70.933 -77.7707
