* Measurement data measured by REW V5.20.13
* Source: C:\Users\kurin\Desktop\Targets and Curves\Resolve\Img\Files\Red Gras Foam _SPL.txt
* Format: Comma/Tab/Space delimited data
* Dated: Aug 15, 2023 12:22:06 AM
* REW Settings:
*  C-weighting compensation: Off
*  Target level: 75.0 dB
* Note: ; Measurement imported from C:\Users\kurin\Desktop\Targets and Curves\Resolve\Img\Files\Red Gras Foam _SPL.txt Format: Comma/Tab/Space delimited data 623 values loaded, 5 Hz to 39,792 Hz log spaced 
* Measurement: Red Gras Foam _SPL
* Smoothing: 1/48 octave
* Frequency Step: 1/96 octave
* Start Frequency: 5.000 Hz
*
* Freq(Hz) SPL(dB) Phase(degrees)
5.000000 87.756 3.2810
5.036232 87.758 3.2728
5.072727 87.760 3.2640
5.109486 87.762 3.2538
5.146511 87.764 3.2420
5.183805 87.767 3.2276
5.221369 87.771 3.2120
5.259205 87.774 3.1964
5.297316 87.778 3.1800
5.335702 87.782 3.1618
5.374367 87.786 3.1430
5.413311 87.790 3.1246
5.452538 87.794 3.1060
5.492050 87.798 3.0871
5.531847 87.802 3.0680
5.571934 87.806 3.0491
5.612310 87.810 3.0300
5.652979 87.813 3.0106
5.693943 87.817 2.9910
5.735204 87.821 2.9716
5.776763 87.825 2.9520
5.818624 87.829 2.9321
5.860788 87.833 2.9120
5.903258 87.837 2.8916
5.946035 87.841 2.8710
5.989123 87.845 2.8506
6.032523 87.849 2.8300
6.076237 87.853 2.8091
6.120268 87.857 2.7880
6.164618 87.861 2.7671
6.209289 87.865 2.7460
6.254284 87.869 2.7246
6.299605 87.873 2.7030
6.345255 87.877 2.6811
6.391235 87.881 2.6590
6.437549 87.885 2.6371
6.484198 87.889 2.6150
6.531185 87.893 2.5926
6.578513 87.896 2.5700
6.626183 87.900 2.5476
6.674199 87.904 2.5250
6.722563 87.908 2.5016
6.771278 87.912 2.4780
6.820345 87.916 2.4551
6.869768 87.920 2.4320
6.919549 87.924 2.4082
6.969691 87.928 2.3840
7.020196 87.932 2.3596
7.071068 87.936 2.3350
7.122308 87.940 2.3105
7.173919 87.944 2.2860
7.225904 87.948 2.2616
7.278266 87.952 2.2370
7.331007 87.956 2.2116
7.384131 87.960 2.1860
7.437639 87.964 2.1606
7.491535 87.967 2.1350
7.545822 87.971 2.1086
7.600502 87.975 2.0820
7.655579 87.979 2.0555
7.711054 87.983 2.0290
7.766932 87.987 2.0026
7.823214 87.991 1.9760
7.879904 87.995 1.9486
7.937005 87.999 1.9210
7.994520 88.003 1.8936
8.052452 88.007 1.8660
8.110803 88.011 1.8382
8.169578 88.015 1.8100
8.228777 88.019 1.7811
8.288406 88.023 1.7520
8.348468 88.027 1.7230
8.408964 88.031 1.6940
8.469899 88.035 1.6651
8.531276 88.039 1.6360
8.593097 88.042 1.6062
8.655366 88.046 1.5760
8.718086 88.050 1.5456
8.781260 88.054 1.5150
8.844893 88.058 1.4841
8.908987 88.062 1.4530
8.973545 88.066 1.4221
9.038571 88.070 1.3910
9.104069 88.074 1.3591
9.170040 88.078 1.3270
9.236490 88.082 1.2951
9.303422 88.086 1.2630
9.370838 88.090 1.2301
9.438744 88.094 1.1970
9.507140 88.098 1.1641
9.576033 88.102 1.1310
9.645425 88.106 1.0972
9.715320 88.110 1.0630
9.785721 88.114 1.0286
9.856632 88.118 0.9940
9.928058 88.121 0.9591
10.000000 88.125 0.9240
10.072464 88.129 0.8892
10.145453 88.133 0.8540
10.218971 88.137 0.8183
10.293022 88.141 0.7820
10.367610 88.145 0.7451
10.442738 88.149 0.7080
10.518411 88.153 0.6711
10.594631 88.157 0.6340
10.671404 88.161 0.5967
10.748734 88.165 0.5590
10.826623 88.169 0.5207
10.905077 88.173 0.4820
10.984100 88.177 0.4432
11.063695 88.181 0.4040
11.143867 88.185 0.3647
11.224621 88.189 0.3250
11.305959 88.192 0.2846
11.387886 88.196 0.2440
11.470407 88.200 0.2036
11.553527 88.204 0.1630
11.637249 88.208 0.1218
11.721577 88.212 0.0800
11.806517 88.216 0.0377
11.892071 88.220 -0.0050
11.978246 88.224 -0.0479
12.065045 88.228 -0.0910
12.152473 88.232 -0.1343
12.240536 88.236 -0.1780
12.329235 88.240 -0.2223
12.418578 88.244 -0.2670
12.508568 88.248 -0.3118
12.599211 88.252 -0.3570
12.690510 88.256 -0.4028
12.782471 88.260 -0.4490
12.875097 88.264 -0.4953
12.968395 88.268 -0.5420
13.062370 88.271 -0.5893
13.157025 88.275 -0.6370
13.252366 88.279 -0.6848
13.348398 88.283 -0.7330
13.445127 88.287 -0.7817
13.542556 88.291 -0.8309
13.640691 88.295 -0.8808
13.739536 88.299 -0.9310
13.839099 88.303 -0.9813
13.939383 88.307 -1.0320
14.040393 88.311 -1.0832
14.142136 88.315 -1.1350
14.244616 88.319 -1.1872
14.347837 88.323 -1.2400
14.451808 88.327 -1.2933
14.556532 88.331 -1.3470
14.662014 88.335 -1.4007
14.768262 88.339 -1.4549
14.875278 88.342 -1.5102
14.983070 88.346 -1.5659
15.091644 88.350 -1.6217
15.201005 88.354 -1.6780
15.311157 88.358 -1.7352
15.422109 88.362 -1.7930
15.533863 88.366 -1.8507
15.646428 88.370 -1.9090
15.759809 88.374 -1.9682
15.874010 88.378 -2.0280
15.989040 88.382 -2.0882
16.104904 88.386 -2.1490
16.221605 88.390 -2.2102
16.339155 88.394 -2.2719
16.457554 88.398 -2.3342
16.576813 88.402 -2.3970
16.696936 88.406 -2.4601
16.817928 88.410 -2.5240
16.939798 88.414 -2.5886
17.062551 88.418 -2.6539
17.186193 88.422 -2.7197
17.310732 88.425 -2.7860
17.436172 88.429 -2.8526
17.562521 88.433 -2.9200
17.689787 88.437 -2.9881
17.817974 88.441 -3.0569
17.947090 88.445 -3.1262
18.077143 88.449 -3.1960
18.208138 88.453 -3.2662
18.340080 88.457 -3.3369
18.472980 88.461 -3.4082
18.606844 88.465 -3.4800
18.741676 88.469 -3.5524
18.877487 88.473 -3.6249
19.014280 88.477 -3.6965
19.152065 88.481 -3.7679
19.290850 88.485 -3.8394
19.430639 88.489 -3.9110
19.571442 88.494 -3.9821
19.713264 88.499 -4.0539
19.856115 88.505 -4.1269
20.000000 88.511 -4.2029
20.144928 88.518 -4.2846
20.290907 88.526 -4.3709
20.437943 88.533 -4.4620
20.586044 88.539 -4.5569
20.735220 88.545 -4.6550
20.885475 88.551 -4.7559
21.036821 88.556 -4.8594
21.189262 88.561 -4.9639
21.342808 88.565 -5.0672
21.497467 88.570 -5.1709
21.653246 88.575 -5.2748
21.810154 88.581 -5.3809
21.968201 88.586 -5.4909
22.127390 88.592 -5.6049
22.287735 88.598 -5.7231
22.449242 88.603 -5.8459
22.611917 88.608 -5.9743
22.775772 88.613 -6.1068
22.940815 88.617 -6.2431
23.107054 88.619 -6.3808
23.274498 88.620 -6.5176
23.443153 88.621 -6.6538
23.613033 88.622 -6.7888
23.784142 88.622 -6.9229
23.956491 88.622 -7.0562
24.130091 88.622 -7.1888
24.304947 88.622 -7.3206
24.481071 88.622 -7.4528
24.658470 88.622 -7.5865
24.837156 88.622 -7.7218
25.017136 88.622 -7.8591
25.198421 88.622 -7.9989
25.381020 88.622 -8.1418
25.564941 88.621 -8.2879
25.750195 88.620 -8.4375
25.936790 88.618 -8.5898
26.124741 88.615 -8.7444
26.314051 88.612 -8.8998
26.504732 88.607 -9.0544
26.696796 88.602 -9.2078
26.890253 88.596 -9.3589
27.085112 88.589 -9.5078
27.281382 88.582 -9.6548
27.479073 88.575 -9.7988
27.678198 88.567 -9.9392
27.878765 88.558 -10.0758
28.080786 88.550 -10.2075
28.284271 88.542 -10.3368
28.489231 88.534 -10.4660
28.695675 88.527 -10.5948
28.903616 88.520 -10.7244
29.113064 88.513 -10.8538
29.324028 88.505 -10.9825
29.536524 88.497 -11.1109
29.750557 88.489 -11.2392
29.966141 88.482 -11.3679
30.183289 88.475 -11.4979
30.402010 88.467 -11.6278
30.622314 88.458 -11.7575
30.844217 88.448 -11.8849
31.067726 88.439 -12.0071
31.292856 88.430 -12.1268
31.519617 88.422 -12.2448
31.748020 88.415 -12.3629
31.978081 88.408 -12.4832
32.209808 88.401 -12.6058
32.443211 88.395 -12.7315
32.678310 88.389 -12.8608
32.915108 88.383 -12.9953
33.153625 88.377 -13.1338
33.393871 88.370 -13.2760
33.635857 88.362 -13.4218
33.879597 88.355 -13.5713
34.125103 88.348 -13.7238
34.372387 88.338 -13.8792
34.621464 88.327 -14.0348
34.872345 88.316 -14.1872
35.125042 88.305 -14.3388
35.379574 88.293 -14.4911
35.635948 88.281 -14.6428
35.894180 88.268 -14.7932
36.154285 88.254 -14.9418
36.416275 88.240 -15.0875
36.680161 88.226 -15.2308
36.945961 88.212 -15.3718
37.213688 88.197 -15.5108
37.483353 88.182 -15.6480
37.754974 88.167 -15.7838
38.028561 88.153 -15.9182
38.304131 88.138 -16.0518
38.581699 88.123 -16.1849
38.861279 88.108 -16.3178
39.142883 88.094 -16.4507
39.426529 88.079 -16.5838
39.712231 88.064 -16.7174
40.000000 88.049 -16.8518
40.289856 88.034 -16.9873
40.581814 88.019 -17.1238
40.875885 88.003 -17.2618
41.172089 87.987 -17.3998
41.470440 87.970 -17.5365
41.770950 87.953 -17.6718
42.073643 87.936 -17.8049
42.378525 87.918 -17.9368
42.685616 87.901 -18.0688
42.994934 87.883 -18.1998
43.306492 87.865 -18.3286
43.620308 87.846 -18.4568
43.936401 87.829 -18.5854
44.254780 87.811 -18.7148
44.575470 87.793 -18.8462
44.898483 87.774 -18.9778
45.223835 87.754 -19.1078
45.551544 87.734 -19.2368
45.881630 87.715 -19.3649
46.214108 87.695 -19.4918
46.548996 87.674 -19.6174
46.886307 87.653 -19.7408
47.226067 87.631 -19.8603
47.568283 87.610 -19.9778
47.912983 87.590 -20.0943
48.260181 87.570 -20.2108
48.609894 87.550 -20.3292
48.962143 87.529 -20.4478
49.316940 87.508 -20.5658
49.674313 87.486 -20.6828
50.034271 87.464 -20.7978
50.396843 87.443 -20.9128
50.762039 87.423 -21.0298
51.129883 87.402 -21.1478
51.500389 87.380 -21.2667
51.873581 87.357 -21.3858
52.249481 87.335 -21.5042
52.628101 87.312 -21.6218
53.009464 87.289 -21.7383
53.393593 87.265 -21.8538
53.780506 87.241 -21.9686
54.170223 87.217 -22.0818
54.562763 87.193 -22.1923
54.958145 87.168 -22.3008
55.356396 87.143 -22.4071
55.757530 87.119 -22.5128
56.161572 87.096 -22.6198
56.568542 87.072 -22.7278
56.978462 87.048 -22.8379
57.391350 87.023 -22.9488
57.807232 86.998 -23.0598
58.226128 86.972 -23.1708
58.648056 86.946 -23.2819
59.073048 86.919 -23.3918
59.501114 86.891 -23.4993
59.932281 86.863 -23.6038
60.366577 86.835 -23.7043
60.804020 86.806 -23.8018
61.244629 86.778 -23.8976
61.688435 86.749 -23.9908
62.135452 86.720 -24.0811
62.585712 86.691 -24.1689
63.039234 86.662 -24.2540
63.496040 86.634 -24.3379
63.956161 86.606 -24.4215
64.419617 86.578 -24.5049
64.886421 86.549 -24.5887
65.356621 86.520 -24.6719
65.830215 86.491 -24.7532
66.307251 86.462 -24.8338
66.787743 86.433 -24.9147
67.271713 86.404 -24.9949
67.759193 86.374 -25.0745
68.250206 86.343 -25.1519
68.744774 86.313 -25.2248
69.242928 86.282 -25.2949
69.744690 86.252 -25.3629
70.250084 86.221 -25.4289
70.759148 86.190 -25.4929
71.271896 86.160 -25.5559
71.788361 86.130 -25.6184
72.308571 86.101 -25.6809
72.832550 86.072 -25.7439
73.360321 86.042 -25.8079
73.891922 86.012 -25.8733
74.427376 85.982 -25.9399
74.966705 85.952 -26.0079
75.509949 85.922 -26.0769
76.057121 85.891 -26.1468
76.608261 85.860 -26.2169
77.163399 85.828 -26.2865
77.722557 85.795 -26.3549
78.285767 85.761 -26.4211
78.853058 85.727 -26.4839
79.424461 85.693 -26.5413
80.000000 85.658 -26.5949
80.579712 85.624 -26.6452
81.163628 85.589 -26.6929
81.751770 85.555 -26.7390
82.344177 85.520 -26.7839
82.940880 85.486 -26.8281
83.541901 85.451 -26.8719
84.147285 85.417 -26.9162
84.757050 85.382 -26.9599
85.371231 85.346 -27.0026
85.989868 85.310 -27.0439
86.612984 85.274 -27.0837
87.240616 85.238 -27.1209
87.872803 85.200 -27.1551
88.509560 85.162 -27.1849
89.150940 85.124 -27.2082
89.796967 85.085 -27.2270
90.447670 85.047 -27.2425
91.103088 85.009 -27.2550
91.763260 84.971 -27.2654
92.428215 84.933 -27.2730
93.097992 84.895 -27.2774
93.772614 84.857 -27.2790
94.452133 84.819 -27.2777
95.136566 84.782 -27.2750
95.825966 84.745 -27.2729
96.520363 84.708 -27.2700
97.219788 84.670 -27.2662
97.924286 84.631 -27.2600
98.633881 84.592 -27.2495
99.348625 84.553 -27.2360
100.068542 84.515 -27.2209
100.793686 84.477 -27.2030
101.524078 84.437 -27.1822
102.259766 84.397 -27.1571
103.000778 84.357 -27.1254
103.747162 84.318 -27.0901
104.498962 84.280 -27.0531
105.256203 84.242 -27.0141
106.018929 84.203 -26.9736
106.787186 84.163 -26.9301
107.561012 84.124 -26.8815
108.340446 84.086 -26.8301
109.125526 84.048 -26.7777
109.916290 84.010 -26.7241
110.712791 83.972 -26.6700
111.515060 83.934 -26.6141
112.323143 83.896 -26.5546
113.137085 83.857 -26.4931
113.956924 83.819 -26.4310
114.782700 83.781 -26.3672
115.614464 83.742 -26.3012
116.452255 83.703 -26.2321
117.296112 83.664 -26.1588
118.146095 83.624 -26.0812
119.002228 83.585 -25.9981
119.864563 83.546 -25.9112
120.733154 83.507 -25.8223
121.608040 83.468 -25.7302
122.489258 83.429 -25.6343
123.376869 83.390 -25.5352
124.270905 83.352 -25.4332
125.171425 83.314 -25.3282
126.078468 83.275 -25.2210
126.992081 83.236 -25.1093
127.912323 83.197 -24.9907
128.839233 83.158 -24.8663
129.772842 83.119 -24.7357
130.713242 83.081 -24.6003
131.660431 83.044 -24.4612
132.614502 83.007 -24.3184
133.575485 82.971 -24.1722
134.543427 82.935 -24.0233
135.518387 82.900 -23.8727
136.500412 82.865 -23.7203
137.489548 82.830 -23.5670
138.485855 82.796 -23.4114
139.489380 82.762 -23.2527
140.500168 82.728 -23.0904
141.518295 82.693 -22.9236
142.543793 82.659 -22.7524
143.576721 82.626 -22.5760
144.617142 82.593 -22.3954
145.665100 82.561 -22.2116
146.720642 82.529 -22.0245
147.783844 82.498 -21.8343
148.854752 82.468 -21.6415
149.933411 82.439 -21.4465
151.019897 82.410 -21.2495
152.114243 82.382 -21.0511
153.216522 82.354 -20.8506
154.326797 82.326 -20.6473
155.445114 82.298 -20.4415
156.571533 82.272 -20.2328
157.706116 82.247 -20.0225
158.848923 82.223 -19.8122
160.000000 82.199 -19.6005
161.159424 82.175 -19.3864
162.327255 82.151 -19.1705
163.503540 82.129 -18.9523
164.688354 82.108 -18.7335
165.881760 82.088 -18.5153
167.083801 82.068 -18.2976
168.294571 82.049 -18.0807
169.514099 82.030 -17.8645
170.742462 82.012 -17.6489
171.979736 81.994 -17.4336
173.225967 81.977 -17.2185
174.481232 81.960 -17.0035
175.745605 81.943 -16.7883
177.019119 81.927 -16.5725
178.301880 81.911 -16.3559
179.593933 81.896 -16.1376
180.895340 81.881 -15.9161
182.206177 81.866 -15.6935
183.526520 81.853 -15.4709
184.856430 81.841 -15.2495
186.195984 81.830 -15.0312
187.545227 81.819 -14.8145
188.904266 81.808 -14.5981
190.273132 81.797 -14.3835
191.651932 81.788 -14.1721
193.040726 81.780 -13.9626
194.439575 81.770 -13.7552
195.848572 81.760 -13.5466
197.267761 81.750 -13.3328
198.697250 81.740 -13.1165
200.137085 81.733 -12.8994
201.587372 81.726 -12.6815
203.048157 81.719 -12.4635
204.519531 81.713 -12.2456
206.001556 81.708 -12.0276
207.494324 81.705 -11.8115
208.997925 81.703 -11.5993
210.512405 81.702 -11.3915
212.037857 81.701 -11.1895
213.574371 81.701 -10.9925
215.122025 81.701 -10.7999
216.680893 81.701 -10.6115
218.251053 81.701 -10.4274
219.832581 81.701 -10.2465
221.425583 81.701 -10.0678
223.030121 81.701 -9.8915
224.646286 81.701 -9.7176
226.274170 81.701 -9.5454
227.913849 81.701 -9.3740
229.565399 81.701 -9.2034
231.228928 81.701 -9.0339
232.904510 81.701 -8.8645
234.592224 81.701 -8.6944
236.292191 81.701 -8.5235
238.004456 81.701 -8.3515
239.729126 81.702 -8.1785
241.466309 81.703 -8.0039
243.216080 81.705 -7.8295
244.978516 81.708 -7.6560
246.753738 81.713 -7.4855
248.541809 81.719 -7.3202
250.342850 81.725 -7.1594
252.156937 81.730 -7.0037
253.984161 81.736 -6.8524
255.824646 81.742 -6.7056
257.678467 81.748 -6.5624
259.545685 81.754 -6.4223
261.426483 81.760 -6.2843
263.320862 81.765 -6.1466
265.229004 81.771 -6.0104
267.150970 81.777 -5.8763
269.086853 81.784 -5.7444
271.036774 81.790 -5.6146
273.000824 81.797 -5.4874
274.979095 81.804 -5.3627
276.971710 81.812 -5.2424
278.978760 81.821 -5.1286
281.000336 81.829 -5.0203
283.036591 81.836 -4.9173
285.087585 81.843 -4.8183
287.153442 81.850 -4.7221
289.234283 81.856 -4.6283
291.330200 81.862 -4.5358
293.441284 81.867 -4.4442
295.567688 81.871 -4.3532
297.709503 81.875 -4.2612
299.866821 81.878 -4.1661
302.039795 81.882 -4.0693
304.228485 81.886 -3.9705
306.433044 81.891 -3.8723
308.653595 81.897 -3.7770
310.890228 81.903 -3.6843
313.143066 81.909 -3.5947
315.412231 81.914 -3.5082
317.697845 81.919 -3.4251
320.000000 81.924 -3.3442
322.318848 81.929 -3.2653
324.654510 81.933 -3.1863
327.007080 81.936 -3.1046
329.376709 81.939 -3.0213
331.763519 81.943 -2.9355
334.167603 81.948 -2.8503
336.589142 81.953 -2.7681
339.028198 81.959 -2.6892
341.484924 81.964 -2.6150
343.959473 81.970 -2.5452
346.451935 81.976 -2.4805
348.962463 81.982 -2.4202
351.491211 81.987 -2.3645
354.038239 81.990 -2.3112
356.603760 81.992 -2.2582
359.187866 81.993 -2.2042
361.790680 81.994 -2.1469
364.412354 81.994 -2.0872
367.053040 81.994 -2.0253
369.712860 81.994 -1.9612
372.391968 81.994 -1.8945
375.090454 81.994 -1.8262
377.808533 81.994 -1.7573
380.546265 81.994 -1.6872
383.303864 81.994 -1.6156
386.081451 81.994 -1.5432
388.879150 81.994 -1.4705
391.697144 81.994 -1.3972
394.535522 81.994 -1.3230
397.394501 81.994 -1.2482
400.274170 81.994 -1.1729
403.174744 81.994 -1.0972
406.096313 81.994 -1.0215
409.039062 81.994 -0.9452
412.003113 81.994 -0.8680
414.988647 81.994 -0.7903
417.995850 81.994 -0.7124
421.024811 81.994 -0.6342
424.075714 81.994 -0.5554
427.148743 81.994 -0.4763
430.244049 81.994 -0.3969
433.361786 81.994 -0.3173
436.502106 81.994 -0.2370
439.665161 81.994 -0.1563
442.851166 81.994 -0.0750
446.060242 81.994 0.0067
449.292572 81.994 0.0891
452.548340 81.994 0.1717
455.827698 81.994 0.2545
459.130798 81.994 0.3377
462.457855 81.994 0.4215
465.809021 81.994 0.5057
469.184448 81.994 0.5905
472.584381 81.994 0.6757
476.008911 81.994 0.7615
479.458252 81.994 0.8477
482.932617 81.994 0.9345
486.432159 81.994 1.0217
489.957031 81.994 1.1094
493.507477 81.994 1.1977
497.083618 81.994 1.2868
500.685699 81.994 1.3767
504.313873 81.994 1.4674
507.968323 81.994 1.5587
511.649292 81.994 1.6504
515.356934 81.994 1.7427
519.091370 81.994 1.8358
522.852966 81.994 1.9297
526.641724 81.994 2.0247
530.458008 81.994 2.1207
534.301941 81.994 2.2172
538.173706 81.994 2.3147
542.073547 81.994 2.4137
546.001648 81.994 2.5137
549.958191 81.994 2.6142
553.943420 81.994 2.7157
557.957520 81.994 2.8185
562.000671 81.994 2.9226
566.073181 81.994 3.0280
570.175171 81.994 3.1346
574.306885 81.994 3.2429
578.468567 81.994 3.3526
582.660400 81.994 3.4637
586.882568 81.994 3.5766
591.135376 81.994 3.6916
595.419006 81.994 3.8086
599.733643 81.994 3.9274
604.079590 81.994 4.0486
608.456970 81.994 4.1724
612.866089 81.994 4.2996
617.307190 81.994 4.4306
621.780457 81.994 4.5655
626.286133 81.995 4.7045
630.824463 81.996 4.8475
635.395691 81.997 4.9953
640.000000 81.999 5.1465
644.637695 82.002 5.3006
649.309021 82.007 5.4555
654.014160 82.012 5.6085
658.753418 82.018 5.7605
663.527039 82.024 5.9111
668.335205 82.031 6.0605
673.178284 82.038 6.2093
678.056396 82.045 6.3565
682.969849 82.053 6.5013
687.918945 82.061 6.6445
692.903870 82.068 6.7863
697.924927 82.075 6.9285
702.982422 82.082 7.0730
708.076477 82.089 7.2195
713.207520 82.096 7.3685
718.375732 82.104 7.5195
723.581360 82.111 7.6720
728.824707 82.119 7.8264
734.106079 82.127 7.9827
739.425720 82.135 8.1424
744.783936 82.143 8.3080
750.180908 82.152 8.4774
755.617065 82.162 8.6502
761.092529 82.173 8.8244
766.607727 82.185 8.9968
772.162903 82.197 9.1694
777.758301 82.209 9.3433
783.394287 82.222 9.5184
789.071045 82.236 9.6950
794.789001 82.250 9.8724
800.548340 82.265 10.0499
806.349487 82.281 10.2274
812.192627 82.297 10.4044
818.078125 82.314 10.5814
824.006226 82.331 10.7582
829.977295 82.348 10.9364
835.991699 82.366 11.1176
842.049622 82.385 11.3003
848.151428 82.405 11.4836
854.297485 82.425 11.6673
860.488098 82.446 11.8509
866.723572 82.467 12.0353
873.004211 82.489 12.2216
879.330322 82.513 12.4083
885.702332 82.538 12.5954
892.120483 82.564 12.7803
898.585144 82.592 12.9604
905.096680 82.621 13.1364
911.655396 82.649 13.3074
918.261597 82.678 13.4764
924.915710 82.707 13.6468
931.618042 82.737 13.8164
938.368896 82.768 13.9841
945.168762 82.800 14.1494
952.017822 82.832 14.3110
958.916504 82.866 14.4704
965.865234 82.900 14.6293
972.864319 82.935 14.7864
979.914062 82.971 14.9420
987.014954 83.008 15.0934
994.167236 83.047 15.2375
1001.371399 83.087 15.3755
1008.627747 83.127 15.5073
1015.936646 83.167 15.6335
1023.298584 83.208 15.7553
1030.713867 83.251 15.8706
1038.182739 83.294 15.9770
1045.705933 83.337 16.0766
1053.283447 83.379 16.1709
1060.916016 83.422 16.2596
1068.603882 83.466 16.3428
1076.347412 83.510 16.4207
1084.147095 83.553 16.4931
1092.003296 83.596 16.5608
1099.916382 83.640 16.6252
1107.886841 83.684 16.6848
1115.915039 83.729 16.7384
1124.001343 83.774 16.7858
1132.146362 83.819 16.8259
1140.350342 83.863 16.8609
1148.613770 83.906 16.8929
1156.937134 83.950 16.9219
1165.320801 83.994 16.9483
1173.765137 84.038 16.9719
1182.270752 84.081 16.9925
1190.838013 84.124 17.0109
1199.467285 84.167 17.0282
1208.159180 84.211 17.0429
1216.913940 84.255 17.0537
1225.732178 84.300 17.0610
1234.614380 84.344 17.0641
1243.560913 84.387 17.0650
1252.572266 84.430 17.0654
1261.648926 84.473 17.0650
1270.791382 84.517 17.0636
1280.000000 84.561 17.0620
1289.275391 84.604 17.0606
1298.618042 84.647 17.0600
1308.028320 84.691 17.0619
1317.506836 84.737 17.0640
1327.054077 84.783 17.0648
1336.670410 84.830 17.0640
1346.356567 84.877 17.0608
1356.112793 84.926 17.0550
1365.939697 84.975 17.0467
1375.837891 85.025 17.0351
1385.807739 85.076 17.0198
1395.849854 85.129 17.0001
1405.964844 85.182 16.9757
1416.152954 85.236 16.9451
1426.415039 85.292 16.9074
1436.751465 85.349 16.8612
1447.162720 85.407 16.8054
1457.649414 85.466 16.7383
1468.212158 85.526 16.6581
1478.851440 85.587 16.5634
1489.567871 85.648 16.4520
1500.361816 85.710 16.3245
1511.234131 85.769 16.1796
1522.185059 85.828 16.0207
1533.215454 85.885 15.8506
1544.325806 85.940 15.6708
1555.516602 85.993 15.4828
1566.788574 86.045 15.2898
1578.142090 86.095 15.0951
1589.578003 86.143 14.8998
1601.096680 86.190 14.7064
1612.698975 86.236 14.5138
1624.385254 86.282 14.3218
1636.156250 86.328 14.1299
1648.012451 86.373 13.9375
1659.954590 86.419 13.7437
1671.983398 86.464 13.5470
1684.099243 86.509 13.3488
1696.302856 86.552 13.1503
1708.594971 86.595 12.9519
1720.976196 86.637 12.7545
1733.447144 86.680 12.5579
1746.008423 86.722 12.3614
1758.660645 86.764 12.1668
1771.404663 86.805 11.9755
1784.240967 86.846 11.7868
1797.170288 86.888 11.6011
1810.193359 86.931 11.4167
1823.310791 86.974 11.2315
1836.523193 87.018 11.0467
1849.831421 87.061 10.8637
1863.236084 87.105 10.6808
1876.737793 87.150 10.4975
1890.337524 87.197 10.3128
1904.035645 87.244 10.1261
1917.833008 87.292 9.9368
1931.730469 87.341 9.7445
1945.728638 87.391 9.5479
1959.828125 87.442 9.3449
1974.029907 87.493 9.1369
1988.334473 87.544 8.9248
2002.742798 87.596 8.7079
2017.255493 87.649 8.4858
2031.873291 87.703 8.2579
2046.597168 87.757 8.0231
2061.427734 87.812 7.7821
2076.365479 87.867 7.5360
2091.411865 87.923 7.2831
2106.566895 87.980 7.0224
2121.832031 88.038 6.7531
2137.207764 88.096 6.4742
2152.694824 88.154 6.1862
2168.294189 88.213 5.8892
2184.006592 88.272 5.5834
2199.832764 88.331 5.2689
2215.773682 88.390 4.9463
2231.830078 88.449 4.6162
2248.002686 88.508 4.2784
2264.292725 88.567 3.9330
2280.700684 88.627 3.5795
2297.227539 88.687 3.2181
2313.874268 88.749 2.8475
2330.641602 88.810 2.4669
2347.530273 88.872 2.0757
2364.541504 88.934 1.6737
2381.676025 88.996 1.2599
2398.934570 89.059 0.8330
2416.318359 89.122 0.3930
2433.827881 89.185 -0.0606
2451.464355 89.248 -0.5280
2469.228760 89.310 -1.0099
2487.121826 89.373 -1.5058
2505.144531 89.434 -2.0156
2523.297852 89.495 -2.5396
2541.582764 89.556 -3.0782
2560.000000 89.616 -3.6305
2578.550781 89.674 -4.1955
2597.236084 89.731 -4.7733
2616.056641 89.788 -5.3642
2635.013672 89.844 -5.9674
2654.108154 89.898 -6.5825
2673.340820 89.951 -7.2092
2692.713135 90.003 -7.8468
2712.225586 90.055 -8.4959
2731.879395 90.104 -9.1569
2751.675781 90.153 -9.8299
2771.615479 90.201 -10.5148
2791.699707 90.248 -11.2119
2811.929688 90.293 -11.9213
2832.305908 90.337 -12.6436
2852.830078 90.379 -13.3793
2873.502930 90.420 -14.1277
2894.325439 90.458 -14.8891
2915.298828 90.495 -15.6615
2936.424316 90.528 -16.4429
2957.702881 90.560 -17.2335
2979.135742 90.590 -18.0329
3000.723633 90.618 -18.8405
3022.468262 90.643 -19.6561
3044.370117 90.666 -20.4782
3066.430908 90.687 -21.3051
3088.651611 90.706 -22.1382
3111.033203 90.723 -22.9785
3133.577148 90.739 -23.8260
3156.284180 90.752 -24.6815
3179.156006 90.762 -25.5429
3202.193359 90.771 -26.4077
3225.397949 90.777 -27.2778
3248.770508 90.781 -28.1554
3272.312500 90.783 -29.0380
3296.024902 90.781 -29.9245
3319.909180 90.777 -30.8139
3343.966797 90.771 -31.7042
3368.198486 90.762 -32.5977
3392.605713 90.752 -33.4968
3417.189941 90.739 -34.3988
3441.952393 90.722 -35.3024
3466.894287 90.702 -36.2069
3492.016846 90.681 -37.1114
3517.321289 90.657 -38.0158
3542.809326 90.629 -38.9206
3568.481934 90.598 -39.8228
3594.340576 90.564 -40.7194
3620.386719 90.527 -41.6108
3646.621582 90.489 -42.4967
3673.046387 90.447 -43.3758
3699.662842 90.402 -44.2467
3726.472168 90.355 -45.1090
3753.475586 90.306 -45.9614
3780.675049 90.255 -46.8052
3808.071289 90.203 -47.6415
3835.666016 90.149 -48.4701
3863.460938 90.093 -49.2915
3891.457275 90.035 -50.1052
3919.656250 89.976 -50.9098
3948.059814 89.915 -51.7073
3976.668945 89.853 -52.5001
4005.485596 89.789 -53.2852
4034.510986 89.723 -54.0610
4063.746582 89.654 -54.8264
4093.194336 89.584 -55.5794
4122.855469 89.512 -56.3214
4152.730957 89.440 -57.0536
4182.823730 89.366 -57.7746
4213.133789 89.290 -58.4835
4243.664062 89.213 -59.1807
4274.415527 89.136 -59.8662
4305.389648 89.058 -60.5407
4336.588379 88.979 -61.2054
4368.013184 88.899 -61.8589
4399.665527 88.818 -62.5008
4431.547363 88.735 -63.1300
4463.660156 88.653 -63.7455
4496.005371 88.569 -64.3470
4528.585449 88.485 -64.9335
4561.401367 88.400 -65.5063
4594.455078 88.318 -66.0654
4627.748535 88.235 -66.6133
4661.283203 88.154 -67.1526
4695.060547 88.072 -67.6834
4729.083008 87.992 -68.2063
4763.352051 87.911 -68.7235
4797.869141 87.833 -69.2379
4832.636719 87.754 -69.7484
4867.655762 87.675 -70.2558
4902.928711 87.596 -70.7586
4938.457520 87.517 -71.2554
4974.243652 87.438 -71.7467
5010.289062 87.359 -72.2323
5046.595703 87.279 -72.7116
5083.165527 87.200 -73.1835
5120.000000 87.121 -73.6497
5157.101562 87.044 -74.1117
5194.472168 86.966 -74.5698
5232.113281 86.889 -75.0252
5270.027344 86.812 -75.4767
5308.216309 86.735 -75.9235
5346.681641 86.657 -76.3658
5385.426270 86.581 -76.8046
5424.451172 86.504 -77.2379
5463.758789 86.427 -77.6648
5503.351562 86.349 -78.0840
5543.230957 86.273 -78.4933
5583.399414 86.197 -78.8941
5623.859375 86.123 -79.2856
5664.611816 86.049 -79.6711
5705.660156 85.979 -80.0527
5747.005859 85.910 -80.4330
5788.650879 85.844 -80.8155
5830.597656 85.778 -81.1990
5872.848633 85.714 -81.5828
5915.405762 85.650 -81.9690
5958.271484 85.590 -82.3597
6001.447266 85.530 -82.7550
6044.936523 85.472 -83.1564
6088.740234 85.414 -83.5620
6132.861816 85.357 -83.9691
6177.303223 85.302 -84.3809
6222.066406 85.250 -84.7994
6267.154297 85.199 -85.2258
6312.568359 85.150 -85.6613
6358.312012 85.102 -86.1087
6404.386719 85.058 -86.5702
6450.795898 85.015 -87.0485
6497.541016 84.974 -87.5475
6544.625000 84.934 -88.0663
6592.049805 84.895 -88.6047
6639.818359 84.856 -89.1651
6687.933594 84.819 -89.7497
6736.396973 84.783 -90.3598
6785.211426 84.747 -90.9975
6834.379883 84.710 -91.6625
6883.904785 84.674 -92.3546
6933.788574 84.637 -93.0762
6984.033691 84.600 -93.8295
7034.642578 84.561 -94.6150
7085.618652 84.522 -95.4332
7136.963867 84.481 -96.2866
7188.681152 84.440 -97.1768
7240.773438 84.396 -98.1072
7293.243164 84.351 -99.0809
7346.092773 84.302 -100.1008
7399.325684 84.251 -101.1686
7452.944336 84.196 -102.2902
7506.951172 84.137 -103.4711
7561.350098 84.072 -104.7134
7616.142578 84.000 -106.0218
7671.332031 83.917 -107.3938
7726.921875 83.823 -108.8325
7782.914551 83.715 -110.3262
7839.312500 83.588 -111.8708
7896.119629 83.443 -113.4476
7953.337891 83.276 -115.0437
8010.971191 83.087 -116.6366
8069.021973 82.874 -118.2073
8127.493164 82.636 -119.7321
8186.388672 82.374 -121.1878
8245.710938 82.090 -122.5541
8305.461914 81.783 -123.8067
8365.647461 81.459 -124.9344
8426.267578 81.118 -125.9194
8487.328125 80.764 -126.7570
8548.831055 80.399 -127.4354
8610.779297 80.028 -127.9577
8673.176758 79.654 -128.3204
8736.026367 79.279 -128.5313
8799.331055 78.906 -128.5942
8863.094727 78.537 -128.5168
8927.320312 78.175 -128.3035
8992.010742 77.822 -127.9681
9057.170898 77.481 -127.5212
9122.802734 77.152 -126.9771
9188.910156 76.836 -126.3516
9255.497070 76.533 -125.6510
9322.566406 76.241 -124.8843
9390.121094 75.963 -124.0595
9458.166016 75.700 -123.1853
9526.704102 75.449 -122.2689
9595.738281 75.210 -121.3201
9665.273438 74.982 -120.3393
9735.311523 74.764 -119.3297
9805.857422 74.556 -118.2927
9876.915039 74.359 -117.2286
9948.487305 74.173 -116.1429
10020.578125 73.998 -115.0407
10093.191406 73.834 -113.9231
10166.331055 73.678 -112.7924
10240.000000 73.533 -111.6501
10314.203125 73.397 -110.4960
10388.944336 73.273 -109.3365
10464.226562 73.159 -108.1779
10540.054688 73.055 -107.0199
10616.432617 72.958 -105.8637
10693.363281 72.871 -104.7118
10770.852539 72.795 -103.5650
10848.902344 72.727 -102.4291
10927.517578 72.669 -101.3102
11006.703125 72.619 -100.2079
11086.461914 72.575 -99.1255
11166.798828 72.537 -98.0579
11247.718750 72.504 -97.0037
11329.223633 72.475 -95.9544
11411.320312 72.450 -94.9044
11494.011719 72.428 -93.8428
11577.301758 72.411 -92.7598
11661.195312 72.400 -91.6473
11745.697266 72.397 -90.4926
11830.811523 72.406 -89.2996
11916.542969 72.431 -88.0615
12002.894531 72.476 -86.7971
12089.873047 72.545 -85.5139
12177.480469 72.641 -84.2382
12265.723633 72.766 -82.9880
12354.606445 72.920 -81.7952
12444.132812 73.107 -80.6878
12534.308594 73.322 -79.6960
12625.136719 73.564 -78.8520
12716.624023 73.830 -78.1791
12808.773438 74.117 -77.7048
12901.591797 74.420 -77.4488
12995.082031 74.737 -77.4369
13089.250000 75.059 -77.6781
13184.099609 75.382 -78.1913
13279.636719 75.698 -78.9723
13375.867188 76.002 -80.0288
13472.793945 76.288 -81.3438
13570.422852 76.551 -82.9126
13668.759766 76.786 -84.7057
13767.809570 76.988 -86.7042
13867.577148 77.156 -88.8720
13968.067383 77.286 -91.1794
14069.285156 77.379 -93.5881
14171.237305 77.430 -96.0604
14273.927734 77.443 -98.5647
14377.362305 77.419 -101.0646
14481.546875 77.360 -103.5364
14586.486328 77.268 -105.9511
14692.185547 77.144 -108.2887
14798.651367 76.989 -110.5226
14905.888672 76.809 -112.6411
15013.902344 76.607 -114.6242
15122.700195 76.387 -116.4709
15232.285156 76.153 -118.1704
15342.664062 75.908 -119.7319
15453.843750 75.656 -121.1563
15565.829102 75.401 -122.4583
15678.625000 75.147 -123.6462
15792.239258 74.895 -124.7413
15906.675781 74.648 -125.7614
16021.942383 74.405 -126.7239
16138.043945 74.168 -127.6499
16254.986328 73.934 -128.5469
16372.777344 73.701 -129.4279
16491.421875 73.467 -130.2962
16610.923828 73.234 -131.1598
16731.294922 72.996 -132.0170
16852.535156 72.753 -132.8723
16974.656250 72.503 -133.7159
17097.662109 72.242 -134.5422
17221.558594 71.973 -135.3432
17346.353516 71.694 -136.1116
17472.052734 71.404 -136.8397
17598.662109 71.103 -137.5226
17726.189453 70.789 -138.1446
17854.640625 70.461 -138.6941
17984.021484 70.120 -139.1537
18114.341797 69.766 -139.5070
18245.605469 69.401 -139.7401
18377.820312 69.025 -139.8401
18510.994141 68.639 -139.7878
18645.132812 68.242 -139.5631
18780.242188 67.841 -139.1547
18916.332031 67.440 -138.5438
19053.408203 67.043 -137.7342
19191.476562 66.654 -136.7155
19330.546875 66.281 -135.5110
19470.623047 65.932 -134.1247
19611.714844 65.612 -132.6040
19753.830078 65.330 -130.9838
19896.974609 65.084 -129.3063
