* Measurement data measured by REW V5.20.13
* Source: EQ window target shape
* Format: 
* Dated: Aug 9, 2023 5:40:06 PM
* REW Settings:
*  C-weighting compensation: Off
*  Target level: 75.0 dB
* Note: 
* Measurement: Target RMS Average 1
* Smoothing: 1/24 octave
* Frequency Step: 1/48 octave
* Start Frequency: 20.000 Hz
*
* Freq(Hz)	SPL(dB)
20.000000	-1.146
20.299999	-1.126
20.600000	-1.108
20.900000	-1.092
21.200001	-1.077
21.400000	-1.066
21.799999	-1.046
22.000000	-1.036
22.400000	-1.017
22.700001	-1.002
23.000000	-0.989
23.299999	-0.976
23.600000	-0.963
24.000000	-0.947
24.299999	-0.935
24.700001	-0.920
25.000000	-0.909
25.400000	-0.894
25.799999	-0.881
26.200001	-0.867
26.500000	-0.858
26.900000	-0.845
27.200001	-0.836
27.600000	-0.825
28.000000	-0.814
28.500000	-0.801
29.000000	-0.789
29.500000	-0.776
30.000000	-0.765
30.400000	-0.756
30.700001	-0.750
31.100000	-0.742
31.500000	-0.735
32.000000	-0.726
32.500000	-0.717
33.000000	-0.709
33.500000	-0.701
34.000000	-0.694
34.500000	-0.687
35.000000	-0.680
35.500000	-0.673
36.000000	-0.667
36.500000	-0.661
37.000000	-0.655
37.500000	-0.649
38.200001	-0.641
38.700001	-0.636
39.500000	-0.627
40.000000	-0.622
40.599998	-0.615
41.200001	-0.608
41.799999	-0.602
42.500000	-0.594
43.099998	-0.588
43.700001	-0.581
44.400002	-0.573
45.000000	-0.567
45.500000	-0.562
46.200001	-0.554
46.799999	-0.548
47.500000	-0.540
48.200001	-0.533
48.700001	-0.528
49.400002	-0.520
50.000000	-0.514
50.799999	-0.506
51.500000	-0.499
52.200001	-0.493
53.000000	-0.485
53.799999	-0.477
54.500000	-0.471
55.200001	-0.464
56.000000	-0.458
57.000000	-0.450
58.000000	-0.442
59.000000	-0.434
60.000000	-0.427
60.799999	-0.422
61.500000	-0.417
62.200001	-0.413
63.000000	-0.408
64.000000	-0.403
65.000000	-0.397
66.000000	-0.392
67.000000	-0.387
68.000000	-0.382
69.000000	-0.378
70.000000	-0.375
71.000000	-0.371
72.000000	-0.368
73.000000	-0.365
74.000000	-0.362
75.000000	-0.359
76.199997	-0.356
77.500000	-0.353
78.800003	-0.350
80.000000	-0.347
81.199997	-0.344
82.500000	-0.342
83.800003	-0.339
85.000000	-0.336
86.199997	-0.334
87.500000	-0.332
88.500000	-0.330
90.000000	-0.328
91.199997	-0.326
92.500000	-0.324
93.800003	-0.322
95.000000	-0.321
96.199997	-0.321
97.500000	-0.320
98.800003	-0.320
100.000000	-0.320
101.500000	-0.320
103.000000	-0.320
104.400002	-0.321
106.000000	-0.323
107.500000	-0.325
109.000000	-0.327
110.599998	-0.329
112.000000	-0.331
113.800003	-0.334
115.000000	-0.337
117.199997	-0.342
118.000000	-0.344
120.599998	-0.350
122.000000	-0.353
124.099998	-0.359
125.000000	-0.361
126.500000	-0.365
128.000000	-0.368
131.500000	-0.377
132.000000	-0.378
134.000000	-0.382
136.000000	-0.386
138.000000	-0.390
140.000000	-0.394
143.000000	-0.399
145.000000	-0.402
147.500000	-0.404
150.000000	-0.407
152.500000	-0.409
155.000000	-0.410
157.500000	-0.412
160.000000	-0.413
162.500000	-0.413
165.000000	-0.414
167.500000	-0.414
170.000000	-0.414
172.500000	-0.414
175.000000	-0.414
177.500000	-0.414
180.000000	-0.414
182.500000	-0.413
185.000000	-0.412
187.500000	-0.412
190.000000	-0.411
192.500000	-0.410
195.000000	-0.408
197.500000	-0.407
200.000000	-0.405
203.000000	-0.402
206.000000	-0.399
209.000000	-0.395
212.000000	-0.391
214.000000	-0.388
218.000000	-0.382
220.000000	-0.379
224.000000	-0.371
227.000000	-0.365
230.000000	-0.358
233.000000	-0.351
236.000000	-0.343
240.000000	-0.332
243.000000	-0.323
247.000000	-0.311
250.000000	-0.303
254.000000	-0.291
258.000000	-0.279
262.000000	-0.267
265.000000	-0.258
269.000000	-0.246
272.000000	-0.237
276.000000	-0.226
280.000000	-0.215
285.000000	-0.201
290.000000	-0.187
295.000000	-0.172
300.000000	-0.159
304.000000	-0.148
307.000000	-0.140
311.000000	-0.129
315.000000	-0.118
320.000000	-0.105
325.000000	-0.092
330.000000	-0.078
335.000000	-0.066
340.000000	-0.053
345.000000	-0.040
350.000000	-0.028
355.000000	-0.015
360.000000	-0.003
365.000000	0.009
370.000000	0.021
375.000000	0.032
382.000000	0.046
387.000000	0.056
395.000000	0.070
400.000000	0.078
406.000000	0.086
412.000000	0.094
418.000000	0.101
425.000000	0.108
431.000000	0.113
437.000000	0.117
444.000000	0.122
450.000000	0.125
455.000000	0.127
462.000000	0.130
468.000000	0.131
475.000000	0.133
482.000000	0.134
487.000000	0.135
494.000000	0.135
500.000000	0.135
508.000000	0.134
515.000000	0.133
522.000000	0.131
530.000000	0.129
538.000000	0.127
545.000000	0.124
552.000000	0.122
560.000000	0.119
570.000000	0.116
580.000000	0.112
590.000000	0.109
600.000000	0.106
608.000000	0.103
615.000000	0.100
622.000000	0.097
630.000000	0.093
640.000000	0.089
650.000000	0.083
660.000000	0.078
670.000000	0.072
680.000000	0.065
690.000000	0.059
700.000000	0.052
710.000000	0.045
720.000000	0.038
730.000000	0.031
740.000000	0.026
750.000000	0.021
762.000000	0.016
775.000000	0.013
788.000000	0.011
800.000000	0.011
812.000000	0.012
825.000000	0.016
838.000000	0.023
850.000000	0.030
862.000000	0.040
875.000000	0.052
885.000000	0.064
900.000000	0.083
912.000000	0.102
925.000000	0.125
938.000000	0.151
950.000000	0.179
962.000000	0.209
975.000000	0.246
988.000000	0.288
1000.000000	0.330
1015.000000	0.389
1030.000000	0.453
1044.000000	0.517
1060.000000	0.593
1075.000000	0.666
1090.000000	0.740
1106.000000	0.817
1120.000000	0.883
1138.000000	0.965
1150.000000	1.018
1172.000000	1.113
1180.000000	1.146
1206.000000	1.254
1220.000000	1.311
1241.000000	1.396
1250.000000	1.432
1265.000000	1.493
1280.000000	1.553
1315.000000	1.691
1320.000000	1.711
1340.000000	1.789
1360.000000	1.867
1380.000000	1.946
1400.000000	2.026
1430.000000	2.147
1450.000000	2.229
1475.000000	2.335
1500.000000	2.444
1525.000000	2.556
1550.000000	2.672
1575.000000	2.790
1600.000000	2.909
1625.000000	3.028
1650.000000	3.149
1675.000000	3.271
1700.000000	3.395
1725.000000	3.521
1750.000000	3.651
1775.000000	3.783
1800.000000	3.920
1825.000000	4.061
1850.000000	4.206
1875.000000	4.355
1900.000000	4.509
1925.000000	4.668
1950.000000	4.830
1975.000000	4.996
2000.000000	5.168
2030.000000	5.380
2060.000000	5.598
2090.000000	5.822
2120.000000	6.050
2140.000000	6.204
2180.000000	6.516
2200.000000	6.671
2240.000000	6.981
2270.000000	7.209
2300.000000	7.433
2330.000000	7.650
2360.000000	7.860
2400.000000	8.127
2430.000000	8.318
2470.000000	8.558
2500.000000	8.727
2540.000000	8.941
2580.000000	9.141
2620.000000	9.329
2650.000000	9.463
2690.000000	9.630
2720.000000	9.746
2760.000000	9.888
2800.000000	10.013
2850.000000	10.148
2900.000000	10.257
2950.000000	10.343
3000.000000	10.407
3040.000000	10.443
3070.000000	10.461
3110.000000	10.474
3150.000000	10.475
3200.000000	10.461
3250.000000	10.431
3300.000000	10.386
3350.000000	10.328
3400.000000	10.258
3450.000000	10.178
3500.000000	10.090
3550.000000	9.997
3600.000000	9.899
3650.000000	9.797
3700.000000	9.693
3750.000000	9.586
3820.000000	9.435
3870.000000	9.328
3950.000000	9.158
4000.000000	9.054
4060.000000	8.933
4120.000000	8.817
4180.000000	8.705
4250.000000	8.581
4310.000000	8.482
4370.000000	8.389
4440.000000	8.289
4500.000000	8.211
4550.000000	8.151
4620.000000	8.075
4680.000000	8.015
4750.000000	7.950
4820.000000	7.887
4870.000000	7.841
4940.000000	7.775
5000.000000	7.716
5080.000000	7.632
5150.000000	7.555
5220.000000	7.473
5300.000000	7.376
5380.000000	7.276
5450.000000	7.186
5520.000000	7.094
5600.000000	6.988
5700.000000	6.855
5800.000000	6.724
5900.000000	6.598
6000.000000	6.479
6080.000000	6.392
6150.000000	6.322
6220.000000	6.259
6300.000000	6.196
6400.000000	6.131
6500.000000	6.081
6600.000000	6.046
6700.000000	6.024
6800.000000	6.015
6900.000000	6.016
7000.000000	6.025
7100.000000	6.040
7200.000000	6.057
7300.000000	6.075
7400.000000	6.089
7500.000000	6.097
7620.000000	6.095
7750.000000	6.075
7880.000000	6.035
8000.000000	5.979
8120.000000	5.904
8250.000000	5.800
8380.000000	5.673
8500.000000	5.534
8620.000000	5.372
8750.000000	5.169
8850.000000	4.994
9000.000000	4.706
9120.000000	4.462
9250.000000	4.193
9380.000000	3.928
9500.000000	3.692
9620.000000	3.467
9750.000000	3.236
9880.000000	3.023
10000.000000	2.848
10150.000000	2.662
10300.000000	2.512
10440.000000	2.392
10600.000000	2.247
10750.000000	2.062
10900.000000	1.806
11060.000000	1.454
11200.000000	1.102
11380.000000	0.632
11500.000000	0.334
11720.000000	-0.153
11800.000000	-0.307
12060.000000	-0.725
12200.000000	-0.897
12410.000000	-1.084
12500.000000	-1.142
12650.000000	-1.212
12800.000000	-1.257
13150.000000	-1.308
13200.000000	-1.313
13400.000000	-1.335
13600.000000	-1.365
13800.000000	-1.409
14000.000000	-1.461
14300.000000	-1.538
14500.000000	-1.586
14750.000000	-1.650
15000.000000	-1.720
15250.000000	-1.790
15500.000000	-1.856
15750.000000	-1.915
16000.000000	-1.963
16250.000000	-2.005
16500.000000	-2.042
16750.000000	-2.079
17000.000000	-2.121
17250.000000	-2.172
17500.000000	-2.237
17750.000000	-2.324
18000.000000	-2.443
18250.000000	-2.601
18500.000000	-2.805
18750.000000	-3.055
19000.000000	-3.346
19250.000000	-3.685
19500.000000	-4.098
19750.000000	-4.592
20000.000000	-5.015
